submission_id,RT,age,assignment_id,comments,dots_number,education,endTime,experiment_id,gender,hit_id,languages,picture,rating_slider,startDate,startTime,timeSpent,trial_number,trial_type,worker_id
14,4877,33,3H0W84IWBLATUU7ZCKU18Q03UPOER1,,389,graduated_college,1535480581379,4,male,386T3MLZLN3LYFFFF2KK8079FOS082,English,images/389red_dots_a.png,387,Tue Aug 28 2018 11:18:53 GMT-0700 (Pacific Daylight Time),1535480333369,4.1335,1,practice,A13PXTFOXDCKBF
14,4782,33,3H0W84IWBLATUU7ZCKU18Q03UPOER1,,160,graduated_college,1535480581379,4,male,386T3MLZLN3LYFFFF2KK8079FOS082,English,images/160red_dots_a.png,233,Tue Aug 28 2018 11:18:53 GMT-0700 (Pacific Daylight Time),1535480333369,4.1335,2,practice,A13PXTFOXDCKBF
14,3621,33,3H0W84IWBLATUU7ZCKU18Q03UPOER1,,169,graduated_college,1535480581379,4,male,386T3MLZLN3LYFFFF2KK8079FOS082,English,images/169red_dots_a.png,264,Tue Aug 28 2018 11:18:53 GMT-0700 (Pacific Daylight Time),1535480333369,4.1335,1,main,A13PXTFOXDCKBF
14,5222,33,3H0W84IWBLATUU7ZCKU18Q03UPOER1,,19,graduated_college,1535480581379,4,male,386T3MLZLN3LYFFFF2KK8079FOS082,English,images/19red_dots_c.png,34,Tue Aug 28 2018 11:18:53 GMT-0700 (Pacific Daylight Time),1535480333369,4.1335,2,main,A13PXTFOXDCKBF
14,3694,33,3H0W84IWBLATUU7ZCKU18Q03UPOER1,,207,graduated_college,1535480581379,4,male,386T3MLZLN3LYFFFF2KK8079FOS082,English,images/207red_dots_d.png,61,Tue Aug 28 2018 11:18:53 GMT-0700 (Pacific Daylight Time),1535480333369,4.1335,3,main,A13PXTFOXDCKBF
14,3111,33,3H0W84IWBLATUU7ZCKU18Q03UPOER1,,368,graduated_college,1535480581379,4,male,386T3MLZLN3LYFFFF2KK8079FOS082,English,images/368red_dots_h.png,343,Tue Aug 28 2018 11:18:53 GMT-0700 (Pacific Daylight Time),1535480333369,4.1335,4,main,A13PXTFOXDCKBF
14,3102,33,3H0W84IWBLATUU7ZCKU18Q03UPOER1,,110,graduated_college,1535480581379,4,male,386T3MLZLN3LYFFFF2KK8079FOS082,English,images/110red_dots_i.png,111,Tue Aug 28 2018 11:18:53 GMT-0700 (Pacific Daylight Time),1535480333369,4.1335,5,main,A13PXTFOXDCKBF
14,2519,33,3H0W84IWBLATUU7ZCKU18Q03UPOER1,,72,graduated_college,1535480581379,4,male,386T3MLZLN3LYFFFF2KK8079FOS082,English,images/72red_dots_j.png,72,Tue Aug 28 2018 11:18:53 GMT-0700 (Pacific Daylight Time),1535480333369,4.1335,6,main,A13PXTFOXDCKBF
14,3679,33,3H0W84IWBLATUU7ZCKU18Q03UPOER1,,322,graduated_college,1535480581379,4,male,386T3MLZLN3LYFFFF2KK8079FOS082,English,images/322red_dots_c.png,373,Tue Aug 28 2018 11:18:53 GMT-0700 (Pacific Daylight Time),1535480333369,4.1335,7,main,A13PXTFOXDCKBF
14,2623,33,3H0W84IWBLATUU7ZCKU18Q03UPOER1,,196,graduated_college,1535480581379,4,male,386T3MLZLN3LYFFFF2KK8079FOS082,English,images/196red_dots_d.png,243,Tue Aug 28 2018 11:18:53 GMT-0700 (Pacific Daylight Time),1535480333369,4.1335,8,main,A13PXTFOXDCKBF
14,6584,33,3H0W84IWBLATUU7ZCKU18Q03UPOER1,,2,graduated_college,1535480581379,4,male,386T3MLZLN3LYFFFF2KK8079FOS082,English,images/2red_dots_c.png,7,Tue Aug 28 2018 11:18:53 GMT-0700 (Pacific Daylight Time),1535480333369,4.1335,9,main,A13PXTFOXDCKBF
14,4751,33,3H0W84IWBLATUU7ZCKU18Q03UPOER1,,419,graduated_college,1535480581379,4,male,386T3MLZLN3LYFFFF2KK8079FOS082,English,images/419red_dots_a.png,411,Tue Aug 28 2018 11:18:53 GMT-0700 (Pacific Daylight Time),1535480333369,4.1335,10,main,A13PXTFOXDCKBF
14,4894,33,3H0W84IWBLATUU7ZCKU18Q03UPOER1,,292,graduated_college,1535480581379,4,male,386T3MLZLN3LYFFFF2KK8079FOS082,English,images/292red_dots_j.png,358,Tue Aug 28 2018 11:18:53 GMT-0700 (Pacific Daylight Time),1535480333369,4.1335,11,main,A13PXTFOXDCKBF
14,2421,33,3H0W84IWBLATUU7ZCKU18Q03UPOER1,,350,graduated_college,1535480581379,4,male,386T3MLZLN3LYFFFF2KK8079FOS082,English,images/350red_dots_g.png,360,Tue Aug 28 2018 11:18:53 GMT-0700 (Pacific Daylight Time),1535480333369,4.1335,12,main,A13PXTFOXDCKBF
14,3118,33,3H0W84IWBLATUU7ZCKU18Q03UPOER1,,148,graduated_college,1535480581379,4,male,386T3MLZLN3LYFFFF2KK8079FOS082,English,images/148red_dots_e.png,222,Tue Aug 28 2018 11:18:53 GMT-0700 (Pacific Daylight Time),1535480333369,4.1335,13,main,A13PXTFOXDCKBF
14,2030,33,3H0W84IWBLATUU7ZCKU18Q03UPOER1,,236,graduated_college,1535480581379,4,male,386T3MLZLN3LYFFFF2KK8079FOS082,English,images/236red_dots_d.png,265,Tue Aug 28 2018 11:18:53 GMT-0700 (Pacific Daylight Time),1535480333369,4.1335,14,main,A13PXTFOXDCKBF
14,1846,33,3H0W84IWBLATUU7ZCKU18Q03UPOER1,,285,graduated_college,1535480581379,4,male,386T3MLZLN3LYFFFF2KK8079FOS082,English,images/285red_dots_a.png,322,Tue Aug 28 2018 11:18:53 GMT-0700 (Pacific Daylight Time),1535480333369,4.1335,15,main,A13PXTFOXDCKBF
14,2183,33,3H0W84IWBLATUU7ZCKU18Q03UPOER1,,407,graduated_college,1535480581379,4,male,386T3MLZLN3LYFFFF2KK8079FOS082,English,images/407red_dots_a.png,411,Tue Aug 28 2018 11:18:53 GMT-0700 (Pacific Daylight Time),1535480333369,4.1335,16,main,A13PXTFOXDCKBF
14,2151,33,3H0W84IWBLATUU7ZCKU18Q03UPOER1,,268,graduated_college,1535480581379,4,male,386T3MLZLN3LYFFFF2KK8079FOS082,English,images/268red_dots_f.png,296,Tue Aug 28 2018 11:18:53 GMT-0700 (Pacific Daylight Time),1535480333369,4.1335,17,main,A13PXTFOXDCKBF
14,3711,33,3H0W84IWBLATUU7ZCKU18Q03UPOER1,,108,graduated_college,1535480581379,4,male,386T3MLZLN3LYFFFF2KK8079FOS082,English,images/108red_dots_b.png,180,Tue Aug 28 2018 11:18:53 GMT-0700 (Pacific Daylight Time),1535480333369,4.1335,18,main,A13PXTFOXDCKBF
14,2813,33,3H0W84IWBLATUU7ZCKU18Q03UPOER1,,395,graduated_college,1535480581379,4,male,386T3MLZLN3LYFFFF2KK8079FOS082,English,images/395red_dots_d.png,362,Tue Aug 28 2018 11:18:53 GMT-0700 (Pacific Daylight Time),1535480333369,4.1335,19,main,A13PXTFOXDCKBF
14,4351,33,3H0W84IWBLATUU7ZCKU18Q03UPOER1,,49,graduated_college,1535480581379,4,male,386T3MLZLN3LYFFFF2KK8079FOS082,English,images/49red_dots_e.png,115,Tue Aug 28 2018 11:18:53 GMT-0700 (Pacific Daylight Time),1535480333369,4.1335,20,main,A13PXTFOXDCKBF
14,3070,33,3H0W84IWBLATUU7ZCKU18Q03UPOER1,,77,graduated_college,1535480581379,4,male,386T3MLZLN3LYFFFF2KK8079FOS082,English,images/77red_dots_b.png,99,Tue Aug 28 2018 11:18:53 GMT-0700 (Pacific Daylight Time),1535480333369,4.1335,21,main,A13PXTFOXDCKBF
14,2071,33,3H0W84IWBLATUU7ZCKU18Q03UPOER1,,140,graduated_college,1535480581379,4,male,386T3MLZLN3LYFFFF2KK8079FOS082,English,images/140red_dots_d.png,93,Tue Aug 28 2018 11:18:53 GMT-0700 (Pacific Daylight Time),1535480333369,4.1335,22,main,A13PXTFOXDCKBF
14,1871,33,3H0W84IWBLATUU7ZCKU18Q03UPOER1,,219,graduated_college,1535480581379,4,male,386T3MLZLN3LYFFFF2KK8079FOS082,English,images/219red_dots_a.png,263,Tue Aug 28 2018 11:18:53 GMT-0700 (Pacific Daylight Time),1535480333369,4.1335,23,main,A13PXTFOXDCKBF
14,3190,33,3H0W84IWBLATUU7ZCKU18Q03UPOER1,,332,graduated_college,1535480581379,4,male,386T3MLZLN3LYFFFF2KK8079FOS082,English,images/332red_dots_j.png,348,Tue Aug 28 2018 11:18:53 GMT-0700 (Pacific Daylight Time),1535480333369,4.1335,24,main,A13PXTFOXDCKBF
23,9180,36,3TE22NPXPCK41M88C2MBRBD2PMA442,I accidentally flipped my answer on one of the questions. I realized it exactly when I pressed submit.,191,graduated_college,1535481198939,4,male,386T3MLZLN3LYFFFF2KK8079FOS082,english,images/191red_dots_a.png,203,Tue Aug 28 2018 14:29:48 GMT-0400 (Eastern Daylight Time),1535480988720,3.50365,1,practice,A1P6OXEJ86HQRM
23,9736,36,3TE22NPXPCK41M88C2MBRBD2PMA442,I accidentally flipped my answer on one of the questions. I realized it exactly when I pressed submit.,3,graduated_college,1535481198939,4,male,386T3MLZLN3LYFFFF2KK8079FOS082,english,images/3red_dots_a.png,5,Tue Aug 28 2018 14:29:48 GMT-0400 (Eastern Daylight Time),1535480988720,3.50365,2,practice,A1P6OXEJ86HQRM
23,6274,36,3TE22NPXPCK41M88C2MBRBD2PMA442,I accidentally flipped my answer on one of the questions. I realized it exactly when I pressed submit.,417,graduated_college,1535481198939,4,male,386T3MLZLN3LYFFFF2KK8079FOS082,english,images/417red_dots_g.png,422,Tue Aug 28 2018 14:29:48 GMT-0400 (Eastern Daylight Time),1535480988720,3.50365,1,main,A1P6OXEJ86HQRM
23,4321,36,3TE22NPXPCK41M88C2MBRBD2PMA442,I accidentally flipped my answer on one of the questions. I realized it exactly when I pressed submit.,214,graduated_college,1535481198939,4,male,386T3MLZLN3LYFFFF2KK8079FOS082,english,images/214red_dots_c.png,188,Tue Aug 28 2018 14:29:48 GMT-0400 (Eastern Daylight Time),1535480988720,3.50365,2,main,A1P6OXEJ86HQRM
23,5483,36,3TE22NPXPCK41M88C2MBRBD2PMA442,I accidentally flipped my answer on one of the questions. I realized it exactly when I pressed submit.,195,graduated_college,1535481198939,4,male,386T3MLZLN3LYFFFF2KK8079FOS082,english,images/195red_dots_a.png,231,Tue Aug 28 2018 14:29:48 GMT-0400 (Eastern Daylight Time),1535480988720,3.50365,3,main,A1P6OXEJ86HQRM
23,3634,36,3TE22NPXPCK41M88C2MBRBD2PMA442,I accidentally flipped my answer on one of the questions. I realized it exactly when I pressed submit.,270,graduated_college,1535481198939,4,male,386T3MLZLN3LYFFFF2KK8079FOS082,english,images/270red_dots_j.png,292,Tue Aug 28 2018 14:29:48 GMT-0400 (Eastern Daylight Time),1535480988720,3.50365,4,main,A1P6OXEJ86HQRM
23,4837,36,3TE22NPXPCK41M88C2MBRBD2PMA442,I accidentally flipped my answer on one of the questions. I realized it exactly when I pressed submit.,113,graduated_college,1535481198939,4,male,386T3MLZLN3LYFFFF2KK8079FOS082,english,images/113red_dots_b.png,86,Tue Aug 28 2018 14:29:48 GMT-0400 (Eastern Daylight Time),1535480988720,3.50365,5,main,A1P6OXEJ86HQRM
23,4939,36,3TE22NPXPCK41M88C2MBRBD2PMA442,I accidentally flipped my answer on one of the questions. I realized it exactly when I pressed submit.,276,graduated_college,1535481198939,4,male,386T3MLZLN3LYFFFF2KK8079FOS082,english,images/276red_dots_d.png,348,Tue Aug 28 2018 14:29:48 GMT-0400 (Eastern Daylight Time),1535480988720,3.50365,6,main,A1P6OXEJ86HQRM
23,4422,36,3TE22NPXPCK41M88C2MBRBD2PMA442,I accidentally flipped my answer on one of the questions. I realized it exactly when I pressed submit.,290,graduated_college,1535481198939,4,male,386T3MLZLN3LYFFFF2KK8079FOS082,english,images/290red_dots_i.png,273,Tue Aug 28 2018 14:29:48 GMT-0400 (Eastern Daylight Time),1535480988720,3.50365,7,main,A1P6OXEJ86HQRM
23,4562,36,3TE22NPXPCK41M88C2MBRBD2PMA442,I accidentally flipped my answer on one of the questions. I realized it exactly when I pressed submit.,2,graduated_college,1535481198939,4,male,386T3MLZLN3LYFFFF2KK8079FOS082,english,images/2red_dots_e.png,6,Tue Aug 28 2018 14:29:48 GMT-0400 (Eastern Daylight Time),1535480988720,3.50365,8,main,A1P6OXEJ86HQRM
23,4502,36,3TE22NPXPCK41M88C2MBRBD2PMA442,I accidentally flipped my answer on one of the questions. I realized it exactly when I pressed submit.,105,graduated_college,1535481198939,4,male,386T3MLZLN3LYFFFF2KK8079FOS082,english,images/105red_dots_a.png,61,Tue Aug 28 2018 14:29:48 GMT-0400 (Eastern Daylight Time),1535480988720,3.50365,9,main,A1P6OXEJ86HQRM
23,3914,36,3TE22NPXPCK41M88C2MBRBD2PMA442,I accidentally flipped my answer on one of the questions. I realized it exactly when I pressed submit.,229,graduated_college,1535481198939,4,male,386T3MLZLN3LYFFFF2KK8079FOS082,english,images/229red_dots_h.png,249,Tue Aug 28 2018 14:29:48 GMT-0400 (Eastern Daylight Time),1535480988720,3.50365,10,main,A1P6OXEJ86HQRM
23,3158,36,3TE22NPXPCK41M88C2MBRBD2PMA442,I accidentally flipped my answer on one of the questions. I realized it exactly when I pressed submit.,88,graduated_college,1535481198939,4,male,386T3MLZLN3LYFFFF2KK8079FOS082,english,images/88red_dots_c.png,119,Tue Aug 28 2018 14:29:48 GMT-0400 (Eastern Daylight Time),1535480988720,3.50365,11,main,A1P6OXEJ86HQRM
23,5891,36,3TE22NPXPCK41M88C2MBRBD2PMA442,I accidentally flipped my answer on one of the questions. I realized it exactly when I pressed submit.,128,graduated_college,1535481198939,4,male,386T3MLZLN3LYFFFF2KK8079FOS082,english,images/128red_dots_e.png,168,Tue Aug 28 2018 14:29:48 GMT-0400 (Eastern Daylight Time),1535480988720,3.50365,12,main,A1P6OXEJ86HQRM
23,5299,36,3TE22NPXPCK41M88C2MBRBD2PMA442,I accidentally flipped my answer on one of the questions. I realized it exactly when I pressed submit.,25,graduated_college,1535481198939,4,male,386T3MLZLN3LYFFFF2KK8079FOS082,english,images/25red_dots_h.png,46,Tue Aug 28 2018 14:29:48 GMT-0400 (Eastern Daylight Time),1535480988720,3.50365,13,main,A1P6OXEJ86HQRM
23,3947,36,3TE22NPXPCK41M88C2MBRBD2PMA442,I accidentally flipped my answer on one of the questions. I realized it exactly when I pressed submit.,147,graduated_college,1535481198939,4,male,386T3MLZLN3LYFFFF2KK8079FOS082,english,images/147red_dots_e.png,172,Tue Aug 28 2018 14:29:48 GMT-0400 (Eastern Daylight Time),1535480988720,3.50365,14,main,A1P6OXEJ86HQRM
23,6603,36,3TE22NPXPCK41M88C2MBRBD2PMA442,I accidentally flipped my answer on one of the questions. I realized it exactly when I pressed submit.,319,graduated_college,1535481198939,4,male,386T3MLZLN3LYFFFF2KK8079FOS082,english,images/319red_dots_i.png,359,Tue Aug 28 2018 14:29:48 GMT-0400 (Eastern Daylight Time),1535480988720,3.50365,15,main,A1P6OXEJ86HQRM
23,5125,36,3TE22NPXPCK41M88C2MBRBD2PMA442,I accidentally flipped my answer on one of the questions. I realized it exactly when I pressed submit.,354,graduated_college,1535481198939,4,male,386T3MLZLN3LYFFFF2KK8079FOS082,english,images/354red_dots_g.png,378,Tue Aug 28 2018 14:29:48 GMT-0400 (Eastern Daylight Time),1535480988720,3.50365,16,main,A1P6OXEJ86HQRM
23,3734,36,3TE22NPXPCK41M88C2MBRBD2PMA442,I accidentally flipped my answer on one of the questions. I realized it exactly when I pressed submit.,170,graduated_college,1535481198939,4,male,386T3MLZLN3LYFFFF2KK8079FOS082,english,images/170red_dots_f.png,108,Tue Aug 28 2018 14:29:48 GMT-0400 (Eastern Daylight Time),1535480988720,3.50365,17,main,A1P6OXEJ86HQRM
23,6181,36,3TE22NPXPCK41M88C2MBRBD2PMA442,I accidentally flipped my answer on one of the questions. I realized it exactly when I pressed submit.,249,graduated_college,1535481198939,4,male,386T3MLZLN3LYFFFF2KK8079FOS082,english,images/249red_dots_j.png,291,Tue Aug 28 2018 14:29:48 GMT-0400 (Eastern Daylight Time),1535480988720,3.50365,18,main,A1P6OXEJ86HQRM
23,6563,36,3TE22NPXPCK41M88C2MBRBD2PMA442,I accidentally flipped my answer on one of the questions. I realized it exactly when I pressed submit.,395,graduated_college,1535481198939,4,male,386T3MLZLN3LYFFFF2KK8079FOS082,english,images/395red_dots_g.png,36,Tue Aug 28 2018 14:29:48 GMT-0400 (Eastern Daylight Time),1535480988720,3.50365,19,main,A1P6OXEJ86HQRM
23,4251,36,3TE22NPXPCK41M88C2MBRBD2PMA442,I accidentally flipped my answer on one of the questions. I realized it exactly when I pressed submit.,406,graduated_college,1535481198939,4,male,386T3MLZLN3LYFFFF2KK8079FOS082,english,images/406red_dots_g.png,22,Tue Aug 28 2018 14:29:48 GMT-0400 (Eastern Daylight Time),1535480988720,3.50365,20,main,A1P6OXEJ86HQRM
23,10891,36,3TE22NPXPCK41M88C2MBRBD2PMA442,I accidentally flipped my answer on one of the questions. I realized it exactly when I pressed submit.,64,graduated_college,1535481198939,4,male,386T3MLZLN3LYFFFF2KK8079FOS082,english,images/64red_dots_f.png,42,Tue Aug 28 2018 14:29:48 GMT-0400 (Eastern Daylight Time),1535480988720,3.50365,21,main,A1P6OXEJ86HQRM
23,7738,36,3TE22NPXPCK41M88C2MBRBD2PMA442,I accidentally flipped my answer on one of the questions. I realized it exactly when I pressed submit.,47,graduated_college,1535481198939,4,male,386T3MLZLN3LYFFFF2KK8079FOS082,english,images/47red_dots_a.png,33,Tue Aug 28 2018 14:29:48 GMT-0400 (Eastern Daylight Time),1535480988720,3.50365,22,main,A1P6OXEJ86HQRM
23,4462,36,3TE22NPXPCK41M88C2MBRBD2PMA442,I accidentally flipped my answer on one of the questions. I realized it exactly when I pressed submit.,366,graduated_college,1535481198939,4,male,386T3MLZLN3LYFFFF2KK8079FOS082,english,images/366red_dots_h.png,399,Tue Aug 28 2018 14:29:48 GMT-0400 (Eastern Daylight Time),1535480988720,3.50365,23,main,A1P6OXEJ86HQRM
23,5172,36,3TE22NPXPCK41M88C2MBRBD2PMA442,I accidentally flipped my answer on one of the questions. I realized it exactly when I pressed submit.,333,graduated_college,1535481198939,4,male,386T3MLZLN3LYFFFF2KK8079FOS082,english,images/333red_dots_h.png,373,Tue Aug 28 2018 14:29:48 GMT-0400 (Eastern Daylight Time),1535480988720,3.50365,24,main,A1P6OXEJ86HQRM
11,5685,30,34MAJL3QP5VJJQP4COHSH6LWBME43H,,300,graduated_college,1535480532952,4,male,386T3MLZLN3LYFFFF2KK8079FOS082,English,images/300red_dots_a.png,216,Tue Aug 28 2018 23:48:54 GMT+0530 (India Standard Time),1535480334117,3.3139166666666666,1,practice,A8WLCSZLNZ8BL
11,4927,30,34MAJL3QP5VJJQP4COHSH6LWBME43H,,393,graduated_college,1535480532952,4,male,386T3MLZLN3LYFFFF2KK8079FOS082,English,images/393red_dots_a.png,417,Tue Aug 28 2018 23:48:54 GMT+0530 (India Standard Time),1535480334117,3.3139166666666666,2,practice,A8WLCSZLNZ8BL
11,4967,30,34MAJL3QP5VJJQP4COHSH6LWBME43H,,364,graduated_college,1535480532952,4,male,386T3MLZLN3LYFFFF2KK8079FOS082,English,images/364red_dots_b.png,341,Tue Aug 28 2018 23:48:54 GMT+0530 (India Standard Time),1535480334117,3.3139166666666666,1,main,A8WLCSZLNZ8BL
11,4383,30,34MAJL3QP5VJJQP4COHSH6LWBME43H,,314,graduated_college,1535480532952,4,male,386T3MLZLN3LYFFFF2KK8079FOS082,English,images/314red_dots_h.png,331,Tue Aug 28 2018 23:48:54 GMT+0530 (India Standard Time),1535480334117,3.3139166666666666,2,main,A8WLCSZLNZ8BL
11,4302,30,34MAJL3QP5VJJQP4COHSH6LWBME43H,,389,graduated_college,1535480532952,4,male,386T3MLZLN3LYFFFF2KK8079FOS082,English,images/389red_dots_c.png,382,Tue Aug 28 2018 23:48:54 GMT+0530 (India Standard Time),1535480334117,3.3139166666666666,3,main,A8WLCSZLNZ8BL
11,3768,30,34MAJL3QP5VJJQP4COHSH6LWBME43H,,334,graduated_college,1535480532952,4,male,386T3MLZLN3LYFFFF2KK8079FOS082,English,images/334red_dots_a.png,324,Tue Aug 28 2018 23:48:54 GMT+0530 (India Standard Time),1535480334117,3.3139166666666666,4,main,A8WLCSZLNZ8BL
11,9607,30,34MAJL3QP5VJJQP4COHSH6LWBME43H,,64,graduated_college,1535480532952,4,male,386T3MLZLN3LYFFFF2KK8079FOS082,English,images/64red_dots_a.png,56,Tue Aug 28 2018 23:48:54 GMT+0530 (India Standard Time),1535480334117,3.3139166666666666,5,main,A8WLCSZLNZ8BL
11,3887,30,34MAJL3QP5VJJQP4COHSH6LWBME43H,,223,graduated_college,1535480532952,4,male,386T3MLZLN3LYFFFF2KK8079FOS082,English,images/223red_dots_e.png,240,Tue Aug 28 2018 23:48:54 GMT+0530 (India Standard Time),1535480334117,3.3139166666666666,6,main,A8WLCSZLNZ8BL
11,7919,30,34MAJL3QP5VJJQP4COHSH6LWBME43H,,107,graduated_college,1535480532952,4,male,386T3MLZLN3LYFFFF2KK8079FOS082,English,images/107red_dots_f.png,180,Tue Aug 28 2018 23:48:54 GMT+0530 (India Standard Time),1535480334117,3.3139166666666666,7,main,A8WLCSZLNZ8BL
11,4735,30,34MAJL3QP5VJJQP4COHSH6LWBME43H,,297,graduated_college,1535480532952,4,male,386T3MLZLN3LYFFFF2KK8079FOS082,English,images/297red_dots_j.png,327,Tue Aug 28 2018 23:48:54 GMT+0530 (India Standard Time),1535480334117,3.3139166666666666,8,main,A8WLCSZLNZ8BL
11,3776,30,34MAJL3QP5VJJQP4COHSH6LWBME43H,,88,graduated_college,1535480532952,4,male,386T3MLZLN3LYFFFF2KK8079FOS082,English,images/88red_dots_e.png,42,Tue Aug 28 2018 23:48:54 GMT+0530 (India Standard Time),1535480334117,3.3139166666666666,9,main,A8WLCSZLNZ8BL
11,4055,30,34MAJL3QP5VJJQP4COHSH6LWBME43H,,181,graduated_college,1535480532952,4,male,386T3MLZLN3LYFFFF2KK8079FOS082,English,images/181red_dots_b.png,216,Tue Aug 28 2018 23:48:54 GMT+0530 (India Standard Time),1535480334117,3.3139166666666666,10,main,A8WLCSZLNZ8BL
11,3704,30,34MAJL3QP5VJJQP4COHSH6LWBME43H,,257,graduated_college,1535480532952,4,male,386T3MLZLN3LYFFFF2KK8079FOS082,English,images/257red_dots_j.png,315,Tue Aug 28 2018 23:48:54 GMT+0530 (India Standard Time),1535480334117,3.3139166666666666,11,main,A8WLCSZLNZ8BL
11,6031,30,34MAJL3QP5VJJQP4COHSH6LWBME43H,,132,graduated_college,1535480532952,4,male,386T3MLZLN3LYFFFF2KK8079FOS082,English,images/132red_dots_f.png,190,Tue Aug 28 2018 23:48:54 GMT+0530 (India Standard Time),1535480334117,3.3139166666666666,12,main,A8WLCSZLNZ8BL
11,9920,30,34MAJL3QP5VJJQP4COHSH6LWBME43H,,430,graduated_college,1535480532952,4,male,386T3MLZLN3LYFFFF2KK8079FOS082,English,images/430red_dots_g.png,424,Tue Aug 28 2018 23:48:54 GMT+0530 (India Standard Time),1535480334117,3.3139166666666666,13,main,A8WLCSZLNZ8BL
11,7727,30,34MAJL3QP5VJJQP4COHSH6LWBME43H,,238,graduated_college,1535480532952,4,male,386T3MLZLN3LYFFFF2KK8079FOS082,English,images/238red_dots_i.png,216,Tue Aug 28 2018 23:48:54 GMT+0530 (India Standard Time),1535480334117,3.3139166666666666,14,main,A8WLCSZLNZ8BL
11,5510,30,34MAJL3QP5VJJQP4COHSH6LWBME43H,,152,graduated_college,1535480532952,4,male,386T3MLZLN3LYFFFF2KK8079FOS082,English,images/152red_dots_e.png,179,Tue Aug 28 2018 23:48:54 GMT+0530 (India Standard Time),1535480334117,3.3139166666666666,15,main,A8WLCSZLNZ8BL
11,10391,30,34MAJL3QP5VJJQP4COHSH6LWBME43H,,207,graduated_college,1535480532952,4,male,386T3MLZLN3LYFFFF2KK8079FOS082,English,images/207red_dots_h.png,203,Tue Aug 28 2018 23:48:54 GMT+0530 (India Standard Time),1535480334117,3.3139166666666666,16,main,A8WLCSZLNZ8BL
11,5142,30,34MAJL3QP5VJJQP4COHSH6LWBME43H,,272,graduated_college,1535480532952,4,male,386T3MLZLN3LYFFFF2KK8079FOS082,English,images/272red_dots_d.png,233,Tue Aug 28 2018 23:48:54 GMT+0530 (India Standard Time),1535480334117,3.3139166666666666,17,main,A8WLCSZLNZ8BL
11,5473,30,34MAJL3QP5VJJQP4COHSH6LWBME43H,,346,graduated_college,1535480532952,4,male,386T3MLZLN3LYFFFF2KK8079FOS082,English,images/346red_dots_h.png,371,Tue Aug 28 2018 23:48:54 GMT+0530 (India Standard Time),1535480334117,3.3139166666666666,18,main,A8WLCSZLNZ8BL
11,7046,30,34MAJL3QP5VJJQP4COHSH6LWBME43H,,404,graduated_college,1535480532952,4,male,386T3MLZLN3LYFFFF2KK8079FOS082,English,images/404red_dots_i.png,431,Tue Aug 28 2018 23:48:54 GMT+0530 (India Standard Time),1535480334117,3.3139166666666666,19,main,A8WLCSZLNZ8BL
11,8375,30,34MAJL3QP5VJJQP4COHSH6LWBME43H,,22,graduated_college,1535480532952,4,male,386T3MLZLN3LYFFFF2KK8079FOS082,English,images/22red_dots_g.png,8,Tue Aug 28 2018 23:48:54 GMT+0530 (India Standard Time),1535480334117,3.3139166666666666,20,main,A8WLCSZLNZ8BL
11,4878,30,34MAJL3QP5VJJQP4COHSH6LWBME43H,,17,graduated_college,1535480532952,4,male,386T3MLZLN3LYFFFF2KK8079FOS082,English,images/17red_dots_d.png,4,Tue Aug 28 2018 23:48:54 GMT+0530 (India Standard Time),1535480334117,3.3139166666666666,21,main,A8WLCSZLNZ8BL
11,4591,30,34MAJL3QP5VJJQP4COHSH6LWBME43H,,48,graduated_college,1535480532952,4,male,386T3MLZLN3LYFFFF2KK8079FOS082,English,images/48red_dots_g.png,9,Tue Aug 28 2018 23:48:54 GMT+0530 (India Standard Time),1535480334117,3.3139166666666666,22,main,A8WLCSZLNZ8BL
11,4239,30,34MAJL3QP5VJJQP4COHSH6LWBME43H,,120,graduated_college,1535480532952,4,male,386T3MLZLN3LYFFFF2KK8079FOS082,English,images/120red_dots_h.png,71,Tue Aug 28 2018 23:48:54 GMT+0530 (India Standard Time),1535480334117,3.3139166666666666,23,main,A8WLCSZLNZ8BL
11,3440,30,34MAJL3QP5VJJQP4COHSH6LWBME43H,,167,graduated_college,1535480532952,4,male,386T3MLZLN3LYFFFF2KK8079FOS082,English,images/167red_dots_i.png,138,Tue Aug 28 2018 23:48:54 GMT+0530 (India Standard Time),1535480334117,3.3139166666666666,24,main,A8WLCSZLNZ8BL
20,10731,37,3L6L49WXW15MX5C8Q75LW3JGPI5457,,332,graduated_high_school,1535481149866,4,male,386T3MLZLN3LYFFFF2KK8079FOS082,English,images/332red_dots_a.png,403,Tue Aug 28 2018 11:29:38 GMT-0700 (Pacific Daylight Time),1535480978357,2.8584833333333335,1,practice,A1K75ALN5NQIJM
20,3283,37,3L6L49WXW15MX5C8Q75LW3JGPI5457,,320,graduated_high_school,1535481149866,4,male,386T3MLZLN3LYFFFF2KK8079FOS082,English,images/320red_dots_a.png,381,Tue Aug 28 2018 11:29:38 GMT-0700 (Pacific Daylight Time),1535480978357,2.8584833333333335,2,practice,A1K75ALN5NQIJM
20,4645,37,3L6L49WXW15MX5C8Q75LW3JGPI5457,,106,graduated_high_school,1535481149866,4,male,386T3MLZLN3LYFFFF2KK8079FOS082,English,images/106red_dots_g.png,55,Tue Aug 28 2018 11:29:38 GMT-0700 (Pacific Daylight Time),1535480978357,2.8584833333333335,1,main,A1K75ALN5NQIJM
20,4828,37,3L6L49WXW15MX5C8Q75LW3JGPI5457,,40,graduated_high_school,1535481149866,4,male,386T3MLZLN3LYFFFF2KK8079FOS082,English,images/40red_dots_h.png,25,Tue Aug 28 2018 11:29:38 GMT-0700 (Pacific Daylight Time),1535480978357,2.8584833333333335,2,main,A1K75ALN5NQIJM
20,3270,37,3L6L49WXW15MX5C8Q75LW3JGPI5457,,18,graduated_high_school,1535481149866,4,male,386T3MLZLN3LYFFFF2KK8079FOS082,English,images/18red_dots_h.png,13,Tue Aug 28 2018 11:29:38 GMT-0700 (Pacific Daylight Time),1535480978357,2.8584833333333335,3,main,A1K75ALN5NQIJM
20,6132,37,3L6L49WXW15MX5C8Q75LW3JGPI5457,,386,graduated_high_school,1535481149866,4,male,386T3MLZLN3LYFFFF2KK8079FOS082,English,images/386red_dots_a.png,421,Tue Aug 28 2018 11:29:38 GMT-0700 (Pacific Daylight Time),1535480978357,2.8584833333333335,4,main,A1K75ALN5NQIJM
20,3293,37,3L6L49WXW15MX5C8Q75LW3JGPI5457,,117,graduated_high_school,1535481149866,4,male,386T3MLZLN3LYFFFF2KK8079FOS082,English,images/117red_dots_c.png,33,Tue Aug 28 2018 11:29:38 GMT-0700 (Pacific Daylight Time),1535480978357,2.8584833333333335,5,main,A1K75ALN5NQIJM
20,3263,37,3L6L49WXW15MX5C8Q75LW3JGPI5457,,312,graduated_high_school,1535481149866,4,male,386T3MLZLN3LYFFFF2KK8079FOS082,English,images/312red_dots_h.png,321,Tue Aug 28 2018 11:29:38 GMT-0700 (Pacific Daylight Time),1535480978357,2.8584833333333335,6,main,A1K75ALN5NQIJM
20,2638,37,3L6L49WXW15MX5C8Q75LW3JGPI5457,,306,graduated_high_school,1535481149866,4,male,386T3MLZLN3LYFFFF2KK8079FOS082,English,images/306red_dots_h.png,319,Tue Aug 28 2018 11:29:38 GMT-0700 (Pacific Daylight Time),1535480978357,2.8584833333333335,7,main,A1K75ALN5NQIJM
20,5201,37,3L6L49WXW15MX5C8Q75LW3JGPI5457,,62,graduated_high_school,1535481149866,4,male,386T3MLZLN3LYFFFF2KK8079FOS082,English,images/62red_dots_g.png,19,Tue Aug 28 2018 11:29:38 GMT-0700 (Pacific Daylight Time),1535480978357,2.8584833333333335,8,main,A1K75ALN5NQIJM
20,2889,37,3L6L49WXW15MX5C8Q75LW3JGPI5457,,268,graduated_high_school,1535481149866,4,male,386T3MLZLN3LYFFFF2KK8079FOS082,English,images/268red_dots_a.png,363,Tue Aug 28 2018 11:29:38 GMT-0700 (Pacific Daylight Time),1535480978357,2.8584833333333335,9,main,A1K75ALN5NQIJM
20,5600,37,3L6L49WXW15MX5C8Q75LW3JGPI5457,,170,graduated_high_school,1535481149866,4,male,386T3MLZLN3LYFFFF2KK8079FOS082,English,images/170red_dots_h.png,148,Tue Aug 28 2018 11:29:38 GMT-0700 (Pacific Daylight Time),1535480978357,2.8584833333333335,10,main,A1K75ALN5NQIJM
20,3627,37,3L6L49WXW15MX5C8Q75LW3JGPI5457,,276,graduated_high_school,1535481149866,4,male,386T3MLZLN3LYFFFF2KK8079FOS082,English,images/276red_dots_i.png,312,Tue Aug 28 2018 11:29:38 GMT-0700 (Pacific Daylight Time),1535480978357,2.8584833333333335,11,main,A1K75ALN5NQIJM
20,4114,37,3L6L49WXW15MX5C8Q75LW3JGPI5457,,372,graduated_high_school,1535481149866,4,male,386T3MLZLN3LYFFFF2KK8079FOS082,English,images/372red_dots_c.png,375,Tue Aug 28 2018 11:29:38 GMT-0700 (Pacific Daylight Time),1535480978357,2.8584833333333335,12,main,A1K75ALN5NQIJM
20,3601,37,3L6L49WXW15MX5C8Q75LW3JGPI5457,,185,graduated_high_school,1535481149866,4,male,386T3MLZLN3LYFFFF2KK8079FOS082,English,images/185red_dots_c.png,102,Tue Aug 28 2018 11:29:38 GMT-0700 (Pacific Daylight Time),1535480978357,2.8584833333333335,13,main,A1K75ALN5NQIJM
20,2410,37,3L6L49WXW15MX5C8Q75LW3JGPI5457,,244,graduated_high_school,1535481149866,4,male,386T3MLZLN3LYFFFF2KK8079FOS082,English,images/244red_dots_h.png,141,Tue Aug 28 2018 11:29:38 GMT-0700 (Pacific Daylight Time),1535480978357,2.8584833333333335,14,main,A1K75ALN5NQIJM
20,3098,37,3L6L49WXW15MX5C8Q75LW3JGPI5457,,397,graduated_high_school,1535481149866,4,male,386T3MLZLN3LYFFFF2KK8079FOS082,English,images/397red_dots_j.png,411,Tue Aug 28 2018 11:29:38 GMT-0700 (Pacific Daylight Time),1535480978357,2.8584833333333335,15,main,A1K75ALN5NQIJM
20,5313,37,3L6L49WXW15MX5C8Q75LW3JGPI5457,,229,graduated_high_school,1535481149866,4,male,386T3MLZLN3LYFFFF2KK8079FOS082,English,images/229red_dots_f.png,208,Tue Aug 28 2018 11:29:38 GMT-0700 (Pacific Daylight Time),1535480978357,2.8584833333333335,16,main,A1K75ALN5NQIJM
20,7820,37,3L6L49WXW15MX5C8Q75LW3JGPI5457,,146,graduated_high_school,1535481149866,4,male,386T3MLZLN3LYFFFF2KK8079FOS082,English,images/146red_dots_f.png,162,Tue Aug 28 2018 11:29:38 GMT-0700 (Pacific Daylight Time),1535480978357,2.8584833333333335,17,main,A1K75ALN5NQIJM
20,6601,37,3L6L49WXW15MX5C8Q75LW3JGPI5457,,415,graduated_high_school,1535481149866,4,male,386T3MLZLN3LYFFFF2KK8079FOS082,English,images/415red_dots_h.png,426,Tue Aug 28 2018 11:29:38 GMT-0700 (Pacific Daylight Time),1535480978357,2.8584833333333335,18,main,A1K75ALN5NQIJM
20,11004,37,3L6L49WXW15MX5C8Q75LW3JGPI5457,,206,graduated_high_school,1535481149866,4,male,386T3MLZLN3LYFFFF2KK8079FOS082,English,images/206red_dots_e.png,125,Tue Aug 28 2018 11:29:38 GMT-0700 (Pacific Daylight Time),1535480978357,2.8584833333333335,19,main,A1K75ALN5NQIJM
20,2747,37,3L6L49WXW15MX5C8Q75LW3JGPI5457,,83,graduated_high_school,1535481149866,4,male,386T3MLZLN3LYFFFF2KK8079FOS082,English,images/83red_dots_g.png,22,Tue Aug 28 2018 11:29:38 GMT-0700 (Pacific Daylight Time),1535480978357,2.8584833333333335,20,main,A1K75ALN5NQIJM
20,5069,37,3L6L49WXW15MX5C8Q75LW3JGPI5457,,357,graduated_high_school,1535481149866,4,male,386T3MLZLN3LYFFFF2KK8079FOS082,English,images/357red_dots_j.png,391,Tue Aug 28 2018 11:29:38 GMT-0700 (Pacific Daylight Time),1535480978357,2.8584833333333335,21,main,A1K75ALN5NQIJM
20,4716,37,3L6L49WXW15MX5C8Q75LW3JGPI5457,,134,graduated_high_school,1535481149866,4,male,386T3MLZLN3LYFFFF2KK8079FOS082,English,images/134red_dots_j.png,58,Tue Aug 28 2018 11:29:38 GMT-0700 (Pacific Daylight Time),1535480978357,2.8584833333333335,22,main,A1K75ALN5NQIJM
20,5800,37,3L6L49WXW15MX5C8Q75LW3JGPI5457,,35,graduated_high_school,1535481149866,4,male,386T3MLZLN3LYFFFF2KK8079FOS082,English,images/35red_dots_j.png,9,Tue Aug 28 2018 11:29:38 GMT-0700 (Pacific Daylight Time),1535480978357,2.8584833333333335,23,main,A1K75ALN5NQIJM
20,5023,37,3L6L49WXW15MX5C8Q75LW3JGPI5457,,340,graduated_high_school,1535481149866,4,male,386T3MLZLN3LYFFFF2KK8079FOS082,English,images/340red_dots_f.png,412,Tue Aug 28 2018 11:29:38 GMT-0700 (Pacific Daylight Time),1535480978357,2.8584833333333335,24,main,A1K75ALN5NQIJM
30,7222,27,3DR23U6WE6M6A9KRG9ZW851LIALETE,Thank you for letting me take your survey!,108,higher_degree,1535481927165,4,female,386T3MLZLN3LYFFFF2KK8079FOS082,English,images/108red_dots_a.png,108,Tue Aug 28 2018 13:43:01 GMT-0500 (Central Daylight Time),1535481781129,2.4339333333333335,1,practice,A3PTFE5MJV5DU1
30,5332,27,3DR23U6WE6M6A9KRG9ZW851LIALETE,Thank you for letting me take your survey!,294,higher_degree,1535481927165,4,female,386T3MLZLN3LYFFFF2KK8079FOS082,English,images/294red_dots_a.png,310,Tue Aug 28 2018 13:43:01 GMT-0500 (Central Daylight Time),1535481781129,2.4339333333333335,2,practice,A3PTFE5MJV5DU1
30,3560,27,3DR23U6WE6M6A9KRG9ZW851LIALETE,Thank you for letting me take your survey!,271,higher_degree,1535481927165,4,female,386T3MLZLN3LYFFFF2KK8079FOS082,English,images/271red_dots_f.png,276,Tue Aug 28 2018 13:43:01 GMT-0500 (Central Daylight Time),1535481781129,2.4339333333333335,1,main,A3PTFE5MJV5DU1
30,5982,27,3DR23U6WE6M6A9KRG9ZW851LIALETE,Thank you for letting me take your survey!,420,higher_degree,1535481927165,4,female,386T3MLZLN3LYFFFF2KK8079FOS082,English,images/420red_dots_f.png,424,Tue Aug 28 2018 13:43:01 GMT-0500 (Central Daylight Time),1535481781129,2.4339333333333335,2,main,A3PTFE5MJV5DU1
30,3709,27,3DR23U6WE6M6A9KRG9ZW851LIALETE,Thank you for letting me take your survey!,61,higher_degree,1535481927165,4,female,386T3MLZLN3LYFFFF2KK8079FOS082,English,images/61red_dots_e.png,11,Tue Aug 28 2018 13:43:01 GMT-0500 (Central Daylight Time),1535481781129,2.4339333333333335,3,main,A3PTFE5MJV5DU1
30,2813,27,3DR23U6WE6M6A9KRG9ZW851LIALETE,Thank you for letting me take your survey!,183,higher_degree,1535481927165,4,female,386T3MLZLN3LYFFFF2KK8079FOS082,English,images/183red_dots_b.png,61,Tue Aug 28 2018 13:43:01 GMT-0500 (Central Daylight Time),1535481781129,2.4339333333333335,4,main,A3PTFE5MJV5DU1
30,4819,27,3DR23U6WE6M6A9KRG9ZW851LIALETE,Thank you for letting me take your survey!,230,higher_degree,1535481927165,4,female,386T3MLZLN3LYFFFF2KK8079FOS082,English,images/230red_dots_h.png,160,Tue Aug 28 2018 13:43:01 GMT-0500 (Central Daylight Time),1535481781129,2.4339333333333335,5,main,A3PTFE5MJV5DU1
30,4907,27,3DR23U6WE6M6A9KRG9ZW851LIALETE,Thank you for letting me take your survey!,243,higher_degree,1535481927165,4,female,386T3MLZLN3LYFFFF2KK8079FOS082,English,images/243red_dots_a.png,289,Tue Aug 28 2018 13:43:01 GMT-0500 (Central Daylight Time),1535481781129,2.4339333333333335,6,main,A3PTFE5MJV5DU1
30,6488,27,3DR23U6WE6M6A9KRG9ZW851LIALETE,Thank you for letting me take your survey!,383,higher_degree,1535481927165,4,female,386T3MLZLN3LYFFFF2KK8079FOS082,English,images/383red_dots_d.png,405,Tue Aug 28 2018 13:43:01 GMT-0500 (Central Daylight Time),1535481781129,2.4339333333333335,7,main,A3PTFE5MJV5DU1
30,5856,27,3DR23U6WE6M6A9KRG9ZW851LIALETE,Thank you for letting me take your survey!,327,higher_degree,1535481927165,4,female,386T3MLZLN3LYFFFF2KK8079FOS082,English,images/327red_dots_b.png,364,Tue Aug 28 2018 13:43:01 GMT-0500 (Central Daylight Time),1535481781129,2.4339333333333335,8,main,A3PTFE5MJV5DU1
30,5756,27,3DR23U6WE6M6A9KRG9ZW851LIALETE,Thank you for letting me take your survey!,99,higher_degree,1535481927165,4,female,386T3MLZLN3LYFFFF2KK8079FOS082,English,images/99red_dots_b.png,12,Tue Aug 28 2018 13:43:01 GMT-0500 (Central Daylight Time),1535481781129,2.4339333333333335,9,main,A3PTFE5MJV5DU1
30,5461,27,3DR23U6WE6M6A9KRG9ZW851LIALETE,Thank you for letting me take your survey!,398,higher_degree,1535481927165,4,female,386T3MLZLN3LYFFFF2KK8079FOS082,English,images/398red_dots_e.png,417,Tue Aug 28 2018 13:43:01 GMT-0500 (Central Daylight Time),1535481781129,2.4339333333333335,10,main,A3PTFE5MJV5DU1
30,3579,27,3DR23U6WE6M6A9KRG9ZW851LIALETE,Thank you for letting me take your survey!,291,higher_degree,1535481927165,4,female,386T3MLZLN3LYFFFF2KK8079FOS082,English,images/291red_dots_j.png,336,Tue Aug 28 2018 13:43:01 GMT-0500 (Central Daylight Time),1535481781129,2.4339333333333335,11,main,A3PTFE5MJV5DU1
30,3368,27,3DR23U6WE6M6A9KRG9ZW851LIALETE,Thank you for letting me take your survey!,89,higher_degree,1535481927165,4,female,386T3MLZLN3LYFFFF2KK8079FOS082,English,images/89red_dots_g.png,23,Tue Aug 28 2018 13:43:01 GMT-0500 (Central Daylight Time),1535481781129,2.4339333333333335,12,main,A3PTFE5MJV5DU1
30,3600,27,3DR23U6WE6M6A9KRG9ZW851LIALETE,Thank you for letting me take your survey!,378,higher_degree,1535481927165,4,female,386T3MLZLN3LYFFFF2KK8079FOS082,English,images/378red_dots_g.png,420,Tue Aug 28 2018 13:43:01 GMT-0500 (Central Daylight Time),1535481781129,2.4339333333333335,13,main,A3PTFE5MJV5DU1
30,4664,27,3DR23U6WE6M6A9KRG9ZW851LIALETE,Thank you for letting me take your survey!,352,higher_degree,1535481927165,4,female,386T3MLZLN3LYFFFF2KK8079FOS082,English,images/352red_dots_j.png,420,Tue Aug 28 2018 13:43:01 GMT-0500 (Central Daylight Time),1535481781129,2.4339333333333335,14,main,A3PTFE5MJV5DU1
30,3979,27,3DR23U6WE6M6A9KRG9ZW851LIALETE,Thank you for letting me take your survey!,163,higher_degree,1535481927165,4,female,386T3MLZLN3LYFFFF2KK8079FOS082,English,images/163red_dots_i.png,43,Tue Aug 28 2018 13:43:01 GMT-0500 (Central Daylight Time),1535481781129,2.4339333333333335,15,main,A3PTFE5MJV5DU1
30,5671,27,3DR23U6WE6M6A9KRG9ZW851LIALETE,Thank you for letting me take your survey!,143,higher_degree,1535481927165,4,female,386T3MLZLN3LYFFFF2KK8079FOS082,English,images/143red_dots_f.png,90,Tue Aug 28 2018 13:43:01 GMT-0500 (Central Daylight Time),1535481781129,2.4339333333333335,16,main,A3PTFE5MJV5DU1
30,2498,27,3DR23U6WE6M6A9KRG9ZW851LIALETE,Thank you for letting me take your survey!,160,higher_degree,1535481927165,4,female,386T3MLZLN3LYFFFF2KK8079FOS082,English,images/160red_dots_e.png,49,Tue Aug 28 2018 13:43:01 GMT-0500 (Central Daylight Time),1535481781129,2.4339333333333335,17,main,A3PTFE5MJV5DU1
30,3995,27,3DR23U6WE6M6A9KRG9ZW851LIALETE,Thank you for letting me take your survey!,36,higher_degree,1535481927165,4,female,386T3MLZLN3LYFFFF2KK8079FOS082,English,images/36red_dots_f.png,22,Tue Aug 28 2018 13:43:01 GMT-0500 (Central Daylight Time),1535481781129,2.4339333333333335,18,main,A3PTFE5MJV5DU1
30,3773,27,3DR23U6WE6M6A9KRG9ZW851LIALETE,Thank you for letting me take your survey!,16,higher_degree,1535481927165,4,female,386T3MLZLN3LYFFFF2KK8079FOS082,English,images/16red_dots_d.png,17,Tue Aug 28 2018 13:43:01 GMT-0500 (Central Daylight Time),1535481781129,2.4339333333333335,19,main,A3PTFE5MJV5DU1
30,4695,27,3DR23U6WE6M6A9KRG9ZW851LIALETE,Thank you for letting me take your survey!,205,higher_degree,1535481927165,4,female,386T3MLZLN3LYFFFF2KK8079FOS082,English,images/205red_dots_f.png,88,Tue Aug 28 2018 13:43:01 GMT-0500 (Central Daylight Time),1535481781129,2.4339333333333335,20,main,A3PTFE5MJV5DU1
30,7734,27,3DR23U6WE6M6A9KRG9ZW851LIALETE,Thank you for letting me take your survey!,45,higher_degree,1535481927165,4,female,386T3MLZLN3LYFFFF2KK8079FOS082,English,images/45red_dots_i.png,9,Tue Aug 28 2018 13:43:01 GMT-0500 (Central Daylight Time),1535481781129,2.4339333333333335,21,main,A3PTFE5MJV5DU1
30,3655,27,3DR23U6WE6M6A9KRG9ZW851LIALETE,Thank you for letting me take your survey!,258,higher_degree,1535481927165,4,female,386T3MLZLN3LYFFFF2KK8079FOS082,English,images/258red_dots_j.png,368,Tue Aug 28 2018 13:43:01 GMT-0500 (Central Daylight Time),1535481781129,2.4339333333333335,22,main,A3PTFE5MJV5DU1
30,2931,27,3DR23U6WE6M6A9KRG9ZW851LIALETE,Thank you for letting me take your survey!,307,higher_degree,1535481927165,4,female,386T3MLZLN3LYFFFF2KK8079FOS082,English,images/307red_dots_h.png,411,Tue Aug 28 2018 13:43:01 GMT-0500 (Central Daylight Time),1535481781129,2.4339333333333335,23,main,A3PTFE5MJV5DU1
30,2546,27,3DR23U6WE6M6A9KRG9ZW851LIALETE,Thank you for letting me take your survey!,109,higher_degree,1535481927165,4,female,386T3MLZLN3LYFFFF2KK8079FOS082,English,images/109red_dots_b.png,35,Tue Aug 28 2018 13:43:01 GMT-0500 (Central Daylight Time),1535481781129,2.4339333333333335,24,main,A3PTFE5MJV5DU1
10,8041,36,3VA45EW49OVRDGL784II7BC4UT01OW,fun!,176,graduated_college,1535480473073,4,female,386T3MLZLN3LYFFFF2KK8079FOS082,english,images/176red_dots_a.png,261,Tue Aug 28 2018 14:19:26 GMT-0400 (Eastern Daylight Time),1535480366403,1.7778333333333334,1,practice,A1HWB810RJBV2K
10,5823,36,3VA45EW49OVRDGL784II7BC4UT01OW,fun!,411,graduated_college,1535480473073,4,female,386T3MLZLN3LYFFFF2KK8079FOS082,english,images/411red_dots_a.png,386,Tue Aug 28 2018 14:19:26 GMT-0400 (Eastern Daylight Time),1535480366403,1.7778333333333334,2,practice,A1HWB810RJBV2K
10,3759,36,3VA45EW49OVRDGL784II7BC4UT01OW,fun!,246,graduated_college,1535480473073,4,female,386T3MLZLN3LYFFFF2KK8079FOS082,english,images/246red_dots_c.png,273,Tue Aug 28 2018 14:19:26 GMT-0400 (Eastern Daylight Time),1535480366403,1.7778333333333334,1,main,A1HWB810RJBV2K
10,2316,36,3VA45EW49OVRDGL784II7BC4UT01OW,fun!,38,graduated_college,1535480473073,4,female,386T3MLZLN3LYFFFF2KK8079FOS082,english,images/38red_dots_j.png,23,Tue Aug 28 2018 14:19:26 GMT-0400 (Eastern Daylight Time),1535480366403,1.7778333333333334,2,main,A1HWB810RJBV2K
10,2157,36,3VA45EW49OVRDGL784II7BC4UT01OW,fun!,31,graduated_college,1535480473073,4,female,386T3MLZLN3LYFFFF2KK8079FOS082,english,images/31red_dots_g.png,75,Tue Aug 28 2018 14:19:26 GMT-0400 (Eastern Daylight Time),1535480366403,1.7778333333333334,3,main,A1HWB810RJBV2K
10,4727,36,3VA45EW49OVRDGL784II7BC4UT01OW,fun!,6,graduated_college,1535480473073,4,female,386T3MLZLN3LYFFFF2KK8079FOS082,english,images/6red_dots_j.png,5,Tue Aug 28 2018 14:19:26 GMT-0400 (Eastern Daylight Time),1535480366403,1.7778333333333334,4,main,A1HWB810RJBV2K
10,2997,36,3VA45EW49OVRDGL784II7BC4UT01OW,fun!,125,graduated_college,1535480473073,4,female,386T3MLZLN3LYFFFF2KK8079FOS082,english,images/125red_dots_f.png,186,Tue Aug 28 2018 14:19:26 GMT-0400 (Eastern Daylight Time),1535480366403,1.7778333333333334,5,main,A1HWB810RJBV2K
10,2455,36,3VA45EW49OVRDGL784II7BC4UT01OW,fun!,316,graduated_college,1535480473073,4,female,386T3MLZLN3LYFFFF2KK8079FOS082,english,images/316red_dots_i.png,402,Tue Aug 28 2018 14:19:26 GMT-0400 (Eastern Daylight Time),1535480366403,1.7778333333333334,6,main,A1HWB810RJBV2K
10,2223,36,3VA45EW49OVRDGL784II7BC4UT01OW,fun!,280,graduated_college,1535480473073,4,female,386T3MLZLN3LYFFFF2KK8079FOS082,english,images/280red_dots_h.png,367,Tue Aug 28 2018 14:19:26 GMT-0400 (Eastern Daylight Time),1535480366403,1.7778333333333334,7,main,A1HWB810RJBV2K
10,2171,36,3VA45EW49OVRDGL784II7BC4UT01OW,fun!,76,graduated_college,1535480473073,4,female,386T3MLZLN3LYFFFF2KK8079FOS082,english,images/76red_dots_j.png,23,Tue Aug 28 2018 14:19:26 GMT-0400 (Eastern Daylight Time),1535480366403,1.7778333333333334,8,main,A1HWB810RJBV2K
10,2169,36,3VA45EW49OVRDGL784II7BC4UT01OW,fun!,94,graduated_college,1535480473073,4,female,386T3MLZLN3LYFFFF2KK8079FOS082,english,images/94red_dots_c.png,40,Tue Aug 28 2018 14:19:26 GMT-0400 (Eastern Daylight Time),1535480366403,1.7778333333333334,9,main,A1HWB810RJBV2K
10,3358,36,3VA45EW49OVRDGL784II7BC4UT01OW,fun!,423,graduated_college,1535480473073,4,female,386T3MLZLN3LYFFFF2KK8079FOS082,english,images/423red_dots_c.png,421,Tue Aug 28 2018 14:19:26 GMT-0400 (Eastern Daylight Time),1535480366403,1.7778333333333334,10,main,A1HWB810RJBV2K
10,4215,36,3VA45EW49OVRDGL784II7BC4UT01OW,fun!,204,graduated_college,1535480473073,4,female,386T3MLZLN3LYFFFF2KK8079FOS082,english,images/204red_dots_h.png,206,Tue Aug 28 2018 14:19:26 GMT-0400 (Eastern Daylight Time),1535480366403,1.7778333333333334,11,main,A1HWB810RJBV2K
10,2934,36,3VA45EW49OVRDGL784II7BC4UT01OW,fun!,406,graduated_college,1535480473073,4,female,386T3MLZLN3LYFFFF2KK8079FOS082,english,images/406red_dots_b.png,406,Tue Aug 28 2018 14:19:26 GMT-0400 (Eastern Daylight Time),1535480366403,1.7778333333333334,12,main,A1HWB810RJBV2K
10,4601,36,3VA45EW49OVRDGL784II7BC4UT01OW,fun!,169,graduated_college,1535480473073,4,female,386T3MLZLN3LYFFFF2KK8079FOS082,english,images/169red_dots_f.png,195,Tue Aug 28 2018 14:19:26 GMT-0400 (Eastern Daylight Time),1535480366403,1.7778333333333334,13,main,A1HWB810RJBV2K
10,2038,36,3VA45EW49OVRDGL784II7BC4UT01OW,fun!,231,graduated_college,1535480473073,4,female,386T3MLZLN3LYFFFF2KK8079FOS082,english,images/231red_dots_d.png,227,Tue Aug 28 2018 14:19:26 GMT-0400 (Eastern Daylight Time),1535480366403,1.7778333333333334,14,main,A1HWB810RJBV2K
10,1909,36,3VA45EW49OVRDGL784II7BC4UT01OW,fun!,161,graduated_college,1535480473073,4,female,386T3MLZLN3LYFFFF2KK8079FOS082,english,images/161red_dots_e.png,237,Tue Aug 28 2018 14:19:26 GMT-0400 (Eastern Daylight Time),1535480366403,1.7778333333333334,15,main,A1HWB810RJBV2K
10,2055,36,3VA45EW49OVRDGL784II7BC4UT01OW,fun!,188,graduated_college,1535480473073,4,female,386T3MLZLN3LYFFFF2KK8079FOS082,english,images/188red_dots_f.png,241,Tue Aug 28 2018 14:19:26 GMT-0400 (Eastern Daylight Time),1535480366403,1.7778333333333334,16,main,A1HWB810RJBV2K
10,1630,36,3VA45EW49OVRDGL784II7BC4UT01OW,fun!,336,graduated_college,1535480473073,4,female,386T3MLZLN3LYFFFF2KK8079FOS082,english,images/336red_dots_a.png,331,Tue Aug 28 2018 14:19:26 GMT-0400 (Eastern Daylight Time),1535480366403,1.7778333333333334,17,main,A1HWB810RJBV2K
10,2030,36,3VA45EW49OVRDGL784II7BC4UT01OW,fun!,396,graduated_college,1535480473073,4,female,386T3MLZLN3LYFFFF2KK8079FOS082,english,images/396red_dots_a.png,372,Tue Aug 28 2018 14:19:26 GMT-0400 (Eastern Daylight Time),1535480366403,1.7778333333333334,18,main,A1HWB810RJBV2K
10,2334,36,3VA45EW49OVRDGL784II7BC4UT01OW,fun!,294,graduated_college,1535480473073,4,female,386T3MLZLN3LYFFFF2KK8079FOS082,english,images/294red_dots_e.png,341,Tue Aug 28 2018 14:19:26 GMT-0400 (Eastern Daylight Time),1535480366403,1.7778333333333334,19,main,A1HWB810RJBV2K
10,3245,36,3VA45EW49OVRDGL784II7BC4UT01OW,fun!,57,graduated_college,1535480473073,4,female,386T3MLZLN3LYFFFF2KK8079FOS082,english,images/57red_dots_b.png,70,Tue Aug 28 2018 14:19:26 GMT-0400 (Eastern Daylight Time),1535480366403,1.7778333333333334,20,main,A1HWB810RJBV2K
10,2318,36,3VA45EW49OVRDGL784II7BC4UT01OW,fun!,346,graduated_college,1535480473073,4,female,386T3MLZLN3LYFFFF2KK8079FOS082,english,images/346red_dots_e.png,379,Tue Aug 28 2018 14:19:26 GMT-0400 (Eastern Daylight Time),1535480366403,1.7778333333333334,21,main,A1HWB810RJBV2K
10,3589,36,3VA45EW49OVRDGL784II7BC4UT01OW,fun!,136,graduated_college,1535480473073,4,female,386T3MLZLN3LYFFFF2KK8079FOS082,english,images/136red_dots_e.png,136,Tue Aug 28 2018 14:19:26 GMT-0400 (Eastern Daylight Time),1535480366403,1.7778333333333334,22,main,A1HWB810RJBV2K
10,3872,36,3VA45EW49OVRDGL784II7BC4UT01OW,fun!,378,graduated_college,1535480473073,4,female,386T3MLZLN3LYFFFF2KK8079FOS082,english,images/378red_dots_c.png,391,Tue Aug 28 2018 14:19:26 GMT-0400 (Eastern Daylight Time),1535480366403,1.7778333333333334,23,main,A1HWB810RJBV2K
10,1740,36,3VA45EW49OVRDGL784II7BC4UT01OW,fun!,264,graduated_college,1535480473073,4,female,386T3MLZLN3LYFFFF2KK8079FOS082,english,images/264red_dots_c.png,241,Tue Aug 28 2018 14:19:26 GMT-0400 (Eastern Daylight Time),1535480366403,1.7778333333333334,24,main,A1HWB810RJBV2K
12,5960,26,3EJPLAJKENOYJ60BGJ5GI5APM8IZ6T,,254,graduated_college,1535480462301,4,male,386T3MLZLN3LYFFFF2KK8079FOS082,english,images/254red_dots_a.png,216,Tue Aug 28 2018 13:17:59 GMT-0500 (Central Daylight Time),1535480279234,3.0511166666666667,1,practice,A2M5M653UAC0SM
12,7359,26,3EJPLAJKENOYJ60BGJ5GI5APM8IZ6T,,297,graduated_college,1535480462301,4,male,386T3MLZLN3LYFFFF2KK8079FOS082,english,images/297red_dots_a.png,350,Tue Aug 28 2018 13:17:59 GMT-0500 (Central Daylight Time),1535480279234,3.0511166666666667,2,practice,A2M5M653UAC0SM
12,8262,26,3EJPLAJKENOYJ60BGJ5GI5APM8IZ6T,,12,graduated_college,1535480462301,4,male,386T3MLZLN3LYFFFF2KK8079FOS082,english,images/12red_dots_c.png,13,Tue Aug 28 2018 13:17:59 GMT-0500 (Central Daylight Time),1535480279234,3.0511166666666667,1,main,A2M5M653UAC0SM
12,4574,26,3EJPLAJKENOYJ60BGJ5GI5APM8IZ6T,,107,graduated_college,1535480462301,4,male,386T3MLZLN3LYFFFF2KK8079FOS082,english,images/107red_dots_g.png,44,Tue Aug 28 2018 13:17:59 GMT-0500 (Central Daylight Time),1535480279234,3.0511166666666667,2,main,A2M5M653UAC0SM
12,9839,26,3EJPLAJKENOYJ60BGJ5GI5APM8IZ6T,,75,graduated_college,1535480462301,4,male,386T3MLZLN3LYFFFF2KK8079FOS082,english,images/75red_dots_f.png,40,Tue Aug 28 2018 13:17:59 GMT-0500 (Central Daylight Time),1535480279234,3.0511166666666667,3,main,A2M5M653UAC0SM
12,5820,26,3EJPLAJKENOYJ60BGJ5GI5APM8IZ6T,,320,graduated_college,1535480462301,4,male,386T3MLZLN3LYFFFF2KK8079FOS082,english,images/320red_dots_d.png,356,Tue Aug 28 2018 13:17:59 GMT-0500 (Central Daylight Time),1535480279234,3.0511166666666667,4,main,A2M5M653UAC0SM
12,4402,26,3EJPLAJKENOYJ60BGJ5GI5APM8IZ6T,,416,graduated_college,1535480462301,4,male,386T3MLZLN3LYFFFF2KK8079FOS082,english,images/416red_dots_f.png,418,Tue Aug 28 2018 13:17:59 GMT-0500 (Central Daylight Time),1535480279234,3.0511166666666667,5,main,A2M5M653UAC0SM
12,5408,26,3EJPLAJKENOYJ60BGJ5GI5APM8IZ6T,,258,graduated_college,1535480462301,4,male,386T3MLZLN3LYFFFF2KK8079FOS082,english,images/258red_dots_h.png,218,Tue Aug 28 2018 13:17:59 GMT-0500 (Central Daylight Time),1535480279234,3.0511166666666667,6,main,A2M5M653UAC0SM
12,7351,26,3EJPLAJKENOYJ60BGJ5GI5APM8IZ6T,,35,graduated_college,1535480462301,4,male,386T3MLZLN3LYFFFF2KK8079FOS082,english,images/35red_dots_g.png,12,Tue Aug 28 2018 13:17:59 GMT-0500 (Central Daylight Time),1535480279234,3.0511166666666667,7,main,A2M5M653UAC0SM
12,3433,26,3EJPLAJKENOYJ60BGJ5GI5APM8IZ6T,,295,graduated_college,1535480462301,4,male,386T3MLZLN3LYFFFF2KK8079FOS082,english,images/295red_dots_g.png,292,Tue Aug 28 2018 13:17:59 GMT-0500 (Central Daylight Time),1535480279234,3.0511166666666667,8,main,A2M5M653UAC0SM
12,4956,26,3EJPLAJKENOYJ60BGJ5GI5APM8IZ6T,,379,graduated_college,1535480462301,4,male,386T3MLZLN3LYFFFF2KK8079FOS082,english,images/379red_dots_i.png,395,Tue Aug 28 2018 13:17:59 GMT-0500 (Central Daylight Time),1535480279234,3.0511166666666667,9,main,A2M5M653UAC0SM
12,5000,26,3EJPLAJKENOYJ60BGJ5GI5APM8IZ6T,,72,graduated_college,1535480462301,4,male,386T3MLZLN3LYFFFF2KK8079FOS082,english,images/72red_dots_d.png,43,Tue Aug 28 2018 13:17:59 GMT-0500 (Central Daylight Time),1535480279234,3.0511166666666667,10,main,A2M5M653UAC0SM
12,4081,26,3EJPLAJKENOYJ60BGJ5GI5APM8IZ6T,,403,graduated_college,1535480462301,4,male,386T3MLZLN3LYFFFF2KK8079FOS082,english,images/403red_dots_f.png,410,Tue Aug 28 2018 13:17:59 GMT-0500 (Central Daylight Time),1535480279234,3.0511166666666667,11,main,A2M5M653UAC0SM
12,5433,26,3EJPLAJKENOYJ60BGJ5GI5APM8IZ6T,,178,graduated_college,1535480462301,4,male,386T3MLZLN3LYFFFF2KK8079FOS082,english,images/178red_dots_g.png,159,Tue Aug 28 2018 13:17:59 GMT-0500 (Central Daylight Time),1535480279234,3.0511166666666667,12,main,A2M5M653UAC0SM
12,5939,26,3EJPLAJKENOYJ60BGJ5GI5APM8IZ6T,,368,graduated_college,1535480462301,4,male,386T3MLZLN3LYFFFF2KK8079FOS082,english,images/368red_dots_c.png,393,Tue Aug 28 2018 13:17:59 GMT-0500 (Central Daylight Time),1535480279234,3.0511166666666667,13,main,A2M5M653UAC0SM
12,7087,26,3EJPLAJKENOYJ60BGJ5GI5APM8IZ6T,,213,graduated_college,1535480462301,4,male,386T3MLZLN3LYFFFF2KK8079FOS082,english,images/213red_dots_f.png,257,Tue Aug 28 2018 13:17:59 GMT-0500 (Central Daylight Time),1535480279234,3.0511166666666667,14,main,A2M5M653UAC0SM
12,6047,26,3EJPLAJKENOYJ60BGJ5GI5APM8IZ6T,,109,graduated_college,1535480462301,4,male,386T3MLZLN3LYFFFF2KK8079FOS082,english,images/109red_dots_f.png,86,Tue Aug 28 2018 13:17:59 GMT-0500 (Central Daylight Time),1535480279234,3.0511166666666667,15,main,A2M5M653UAC0SM
12,5575,26,3EJPLAJKENOYJ60BGJ5GI5APM8IZ6T,,52,graduated_college,1535480462301,4,male,386T3MLZLN3LYFFFF2KK8079FOS082,english,images/52red_dots_b.png,20,Tue Aug 28 2018 13:17:59 GMT-0500 (Central Daylight Time),1535480279234,3.0511166666666667,16,main,A2M5M653UAC0SM
12,5674,26,3EJPLAJKENOYJ60BGJ5GI5APM8IZ6T,,130,graduated_college,1535480462301,4,male,386T3MLZLN3LYFFFF2KK8079FOS082,english,images/130red_dots_a.png,107,Tue Aug 28 2018 13:17:59 GMT-0500 (Central Daylight Time),1535480279234,3.0511166666666667,17,main,A2M5M653UAC0SM
12,5078,26,3EJPLAJKENOYJ60BGJ5GI5APM8IZ6T,,341,graduated_college,1535480462301,4,male,386T3MLZLN3LYFFFF2KK8079FOS082,english,images/341red_dots_j.png,360,Tue Aug 28 2018 13:17:59 GMT-0500 (Central Daylight Time),1535480279234,3.0511166666666667,18,main,A2M5M653UAC0SM
12,3505,26,3EJPLAJKENOYJ60BGJ5GI5APM8IZ6T,,246,graduated_college,1535480462301,4,male,386T3MLZLN3LYFFFF2KK8079FOS082,english,images/246red_dots_f.png,293,Tue Aug 28 2018 13:17:59 GMT-0500 (Central Daylight Time),1535480279234,3.0511166666666667,19,main,A2M5M653UAC0SM
12,12791,26,3EJPLAJKENOYJ60BGJ5GI5APM8IZ6T,,231,graduated_college,1535480462301,4,male,386T3MLZLN3LYFFFF2KK8079FOS082,english,images/231red_dots_a.png,246,Tue Aug 28 2018 13:17:59 GMT-0500 (Central Daylight Time),1535480279234,3.0511166666666667,20,main,A2M5M653UAC0SM
12,4121,26,3EJPLAJKENOYJ60BGJ5GI5APM8IZ6T,,187,graduated_college,1535480462301,4,male,386T3MLZLN3LYFFFF2KK8079FOS082,english,images/187red_dots_f.png,198,Tue Aug 28 2018 13:17:59 GMT-0500 (Central Daylight Time),1535480279234,3.0511166666666667,21,main,A2M5M653UAC0SM
12,5245,26,3EJPLAJKENOYJ60BGJ5GI5APM8IZ6T,,273,graduated_college,1535480462301,4,male,386T3MLZLN3LYFFFF2KK8079FOS082,english,images/273red_dots_f.png,325,Tue Aug 28 2018 13:17:59 GMT-0500 (Central Daylight Time),1535480279234,3.0511166666666667,22,main,A2M5M653UAC0SM
12,7117,26,3EJPLAJKENOYJ60BGJ5GI5APM8IZ6T,,156,graduated_college,1535480462301,4,male,386T3MLZLN3LYFFFF2KK8079FOS082,english,images/156red_dots_b.png,200,Tue Aug 28 2018 13:17:59 GMT-0500 (Central Daylight Time),1535480279234,3.0511166666666667,23,main,A2M5M653UAC0SM
12,9008,26,3EJPLAJKENOYJ60BGJ5GI5APM8IZ6T,,344,graduated_college,1535480462301,4,male,386T3MLZLN3LYFFFF2KK8079FOS082,english,images/344red_dots_j.png,391,Tue Aug 28 2018 13:17:59 GMT-0500 (Central Daylight Time),1535480279234,3.0511166666666667,24,main,A2M5M653UAC0SM
13,4402,22,3AQF3RZ559QSEP9BF7B9FDU7A3P6FD,,78,graduated_high_school,1535480571698,4,female,386T3MLZLN3LYFFFF2KK8079FOS082,English,images/78red_dots_a.png,98,Tue Aug 28 2018 14:20:59 GMT-0400 (Eastern Daylight Time),1535480459439,1.8709833333333334,1,practice,AMTTB8JUWRRM7
13,3453,22,3AQF3RZ559QSEP9BF7B9FDU7A3P6FD,,382,graduated_high_school,1535480571698,4,female,386T3MLZLN3LYFFFF2KK8079FOS082,English,images/382red_dots_a.png,398,Tue Aug 28 2018 14:20:59 GMT-0400 (Eastern Daylight Time),1535480459439,1.8709833333333334,2,practice,AMTTB8JUWRRM7
13,3507,22,3AQF3RZ559QSEP9BF7B9FDU7A3P6FD,,138,graduated_high_school,1535480571698,4,female,386T3MLZLN3LYFFFF2KK8079FOS082,English,images/138red_dots_b.png,186,Tue Aug 28 2018 14:20:59 GMT-0400 (Eastern Daylight Time),1535480459439,1.8709833333333334,1,main,AMTTB8JUWRRM7
13,4350,22,3AQF3RZ559QSEP9BF7B9FDU7A3P6FD,,51,graduated_high_school,1535480571698,4,female,386T3MLZLN3LYFFFF2KK8079FOS082,English,images/51red_dots_j.png,43,Tue Aug 28 2018 14:20:59 GMT-0400 (Eastern Daylight Time),1535480459439,1.8709833333333334,2,main,AMTTB8JUWRRM7
13,5945,22,3AQF3RZ559QSEP9BF7B9FDU7A3P6FD,,243,graduated_high_school,1535480571698,4,female,386T3MLZLN3LYFFFF2KK8079FOS082,English,images/243red_dots_g.png,209,Tue Aug 28 2018 14:20:59 GMT-0400 (Eastern Daylight Time),1535480459439,1.8709833333333334,3,main,AMTTB8JUWRRM7
13,2746,22,3AQF3RZ559QSEP9BF7B9FDU7A3P6FD,,407,graduated_high_school,1535480571698,4,female,386T3MLZLN3LYFFFF2KK8079FOS082,English,images/407red_dots_e.png,405,Tue Aug 28 2018 14:20:59 GMT-0400 (Eastern Daylight Time),1535480459439,1.8709833333333334,4,main,AMTTB8JUWRRM7
13,3295,22,3AQF3RZ559QSEP9BF7B9FDU7A3P6FD,,95,graduated_high_school,1535480571698,4,female,386T3MLZLN3LYFFFF2KK8079FOS082,English,images/95red_dots_e.png,57,Tue Aug 28 2018 14:20:59 GMT-0400 (Eastern Daylight Time),1535480459439,1.8709833333333334,5,main,AMTTB8JUWRRM7
13,3148,22,3AQF3RZ559QSEP9BF7B9FDU7A3P6FD,,171,graduated_high_school,1535480571698,4,female,386T3MLZLN3LYFFFF2KK8079FOS082,English,images/171red_dots_e.png,143,Tue Aug 28 2018 14:20:59 GMT-0400 (Eastern Daylight Time),1535480459439,1.8709833333333334,6,main,AMTTB8JUWRRM7
13,2583,22,3AQF3RZ559QSEP9BF7B9FDU7A3P6FD,,197,graduated_high_school,1535480571698,4,female,386T3MLZLN3LYFFFF2KK8079FOS082,English,images/197red_dots_i.png,150,Tue Aug 28 2018 14:20:59 GMT-0400 (Eastern Daylight Time),1535480459439,1.8709833333333334,7,main,AMTTB8JUWRRM7
13,4372,22,3AQF3RZ559QSEP9BF7B9FDU7A3P6FD,,11,graduated_high_school,1535480571698,4,female,386T3MLZLN3LYFFFF2KK8079FOS082,English,images/11red_dots_h.png,28,Tue Aug 28 2018 14:20:59 GMT-0400 (Eastern Daylight Time),1535480459439,1.8709833333333334,8,main,AMTTB8JUWRRM7
13,3077,22,3AQF3RZ559QSEP9BF7B9FDU7A3P6FD,,150,graduated_high_school,1535480571698,4,female,386T3MLZLN3LYFFFF2KK8079FOS082,English,images/150red_dots_i.png,65,Tue Aug 28 2018 14:20:59 GMT-0400 (Eastern Daylight Time),1535480459439,1.8709833333333334,9,main,AMTTB8JUWRRM7
13,3104,22,3AQF3RZ559QSEP9BF7B9FDU7A3P6FD,,418,graduated_high_school,1535480571698,4,female,386T3MLZLN3LYFFFF2KK8079FOS082,English,images/418red_dots_h.png,425,Tue Aug 28 2018 14:20:59 GMT-0400 (Eastern Daylight Time),1535480459439,1.8709833333333334,10,main,AMTTB8JUWRRM7
13,4035,22,3AQF3RZ559QSEP9BF7B9FDU7A3P6FD,,68,graduated_high_school,1535480571698,4,female,386T3MLZLN3LYFFFF2KK8079FOS082,English,images/68red_dots_h.png,39,Tue Aug 28 2018 14:20:59 GMT-0400 (Eastern Daylight Time),1535480459439,1.8709833333333334,11,main,AMTTB8JUWRRM7
13,3971,22,3AQF3RZ559QSEP9BF7B9FDU7A3P6FD,,351,graduated_high_school,1535480571698,4,female,386T3MLZLN3LYFFFF2KK8079FOS082,English,images/351red_dots_d.png,379,Tue Aug 28 2018 14:20:59 GMT-0400 (Eastern Daylight Time),1535480459439,1.8709833333333334,12,main,AMTTB8JUWRRM7
13,4867,22,3AQF3RZ559QSEP9BF7B9FDU7A3P6FD,,289,graduated_high_school,1535480571698,4,female,386T3MLZLN3LYFFFF2KK8079FOS082,English,images/289red_dots_g.png,373,Tue Aug 28 2018 14:20:59 GMT-0400 (Eastern Daylight Time),1535480459439,1.8709833333333334,13,main,AMTTB8JUWRRM7
13,2230,22,3AQF3RZ559QSEP9BF7B9FDU7A3P6FD,,387,graduated_high_school,1535480571698,4,female,386T3MLZLN3LYFFFF2KK8079FOS082,English,images/387red_dots_g.png,417,Tue Aug 28 2018 14:20:59 GMT-0400 (Eastern Daylight Time),1535480459439,1.8709833333333334,14,main,AMTTB8JUWRRM7
13,2400,22,3AQF3RZ559QSEP9BF7B9FDU7A3P6FD,,332,graduated_high_school,1535480571698,4,female,386T3MLZLN3LYFFFF2KK8079FOS082,English,images/332red_dots_b.png,387,Tue Aug 28 2018 14:20:59 GMT-0400 (Eastern Daylight Time),1535480459439,1.8709833333333334,15,main,AMTTB8JUWRRM7
13,3146,22,3AQF3RZ559QSEP9BF7B9FDU7A3P6FD,,87,graduated_high_school,1535480571698,4,female,386T3MLZLN3LYFFFF2KK8079FOS082,English,images/87red_dots_a.png,46,Tue Aug 28 2018 14:20:59 GMT-0400 (Eastern Daylight Time),1535480459439,1.8709833333333334,16,main,AMTTB8JUWRRM7
13,2486,22,3AQF3RZ559QSEP9BF7B9FDU7A3P6FD,,270,graduated_high_school,1535480571698,4,female,386T3MLZLN3LYFFFF2KK8079FOS082,English,images/270red_dots_h.png,168,Tue Aug 28 2018 14:20:59 GMT-0400 (Eastern Daylight Time),1535480459439,1.8709833333333334,17,main,AMTTB8JUWRRM7
13,3217,22,3AQF3RZ559QSEP9BF7B9FDU7A3P6FD,,201,graduated_high_school,1535480571698,4,female,386T3MLZLN3LYFFFF2KK8079FOS082,English,images/201red_dots_j.png,121,Tue Aug 28 2018 14:20:59 GMT-0400 (Eastern Daylight Time),1535480459439,1.8709833333333334,18,main,AMTTB8JUWRRM7
13,3133,22,3AQF3RZ559QSEP9BF7B9FDU7A3P6FD,,223,graduated_high_school,1535480571698,4,female,386T3MLZLN3LYFFFF2KK8079FOS082,English,images/223red_dots_e.png,216,Tue Aug 28 2018 14:20:59 GMT-0400 (Eastern Daylight Time),1535480459439,1.8709833333333334,19,main,AMTTB8JUWRRM7
13,2713,22,3AQF3RZ559QSEP9BF7B9FDU7A3P6FD,,19,graduated_high_school,1535480571698,4,female,386T3MLZLN3LYFFFF2KK8079FOS082,English,images/19red_dots_j.png,16,Tue Aug 28 2018 14:20:59 GMT-0400 (Eastern Daylight Time),1535480459439,1.8709833333333334,20,main,AMTTB8JUWRRM7
13,3296,22,3AQF3RZ559QSEP9BF7B9FDU7A3P6FD,,314,graduated_high_school,1535480571698,4,female,386T3MLZLN3LYFFFF2KK8079FOS082,English,images/314red_dots_g.png,367,Tue Aug 28 2018 14:20:59 GMT-0400 (Eastern Daylight Time),1535480459439,1.8709833333333334,21,main,AMTTB8JUWRRM7
13,2402,22,3AQF3RZ559QSEP9BF7B9FDU7A3P6FD,,364,graduated_high_school,1535480571698,4,female,386T3MLZLN3LYFFFF2KK8079FOS082,English,images/364red_dots_d.png,380,Tue Aug 28 2018 14:20:59 GMT-0400 (Eastern Daylight Time),1535480459439,1.8709833333333334,22,main,AMTTB8JUWRRM7
13,3968,22,3AQF3RZ559QSEP9BF7B9FDU7A3P6FD,,283,graduated_high_school,1535480571698,4,female,386T3MLZLN3LYFFFF2KK8079FOS082,English,images/283red_dots_e.png,348,Tue Aug 28 2018 14:20:59 GMT-0400 (Eastern Daylight Time),1535480459439,1.8709833333333334,23,main,AMTTB8JUWRRM7
13,3057,22,3AQF3RZ559QSEP9BF7B9FDU7A3P6FD,,124,graduated_high_school,1535480571698,4,female,386T3MLZLN3LYFFFF2KK8079FOS082,English,images/124red_dots_b.png,57,Tue Aug 28 2018 14:20:59 GMT-0400 (Eastern Daylight Time),1535480459439,1.8709833333333334,24,main,AMTTB8JUWRRM7
15,3798,27,3NGI5ARFTUD9YGX8N4VXWBHU4YW1PD,,41,graduated_college,1535480626625,4,male,386T3MLZLN3LYFFFF2KK8079FOS082,english,images/41red_dots_a.png,25,Tue Aug 28 2018 11:21:51 GMT-0700 (Pacific Daylight Time),1535480511450,1.9195833333333334,1,practice,A2CK0OXMPOR9LE
15,7405,27,3NGI5ARFTUD9YGX8N4VXWBHU4YW1PD,,423,graduated_college,1535480626625,4,male,386T3MLZLN3LYFFFF2KK8079FOS082,english,images/423red_dots_a.png,0,Tue Aug 28 2018 11:21:51 GMT-0700 (Pacific Daylight Time),1535480511450,1.9195833333333334,2,practice,A2CK0OXMPOR9LE
15,5727,27,3NGI5ARFTUD9YGX8N4VXWBHU4YW1PD,,228,graduated_college,1535480626625,4,male,386T3MLZLN3LYFFFF2KK8079FOS082,english,images/228red_dots_g.png,381,Tue Aug 28 2018 11:21:51 GMT-0700 (Pacific Daylight Time),1535480511450,1.9195833333333334,1,main,A2CK0OXMPOR9LE
15,2194,27,3NGI5ARFTUD9YGX8N4VXWBHU4YW1PD,,352,graduated_college,1535480626625,4,male,386T3MLZLN3LYFFFF2KK8079FOS082,english,images/352red_dots_c.png,405,Tue Aug 28 2018 11:21:51 GMT-0700 (Pacific Daylight Time),1535480511450,1.9195833333333334,2,main,A2CK0OXMPOR9LE
15,7104,27,3NGI5ARFTUD9YGX8N4VXWBHU4YW1PD,,406,graduated_college,1535480626625,4,male,386T3MLZLN3LYFFFF2KK8079FOS082,english,images/406red_dots_a.png,425,Tue Aug 28 2018 11:21:51 GMT-0700 (Pacific Daylight Time),1535480511450,1.9195833333333334,3,main,A2CK0OXMPOR9LE
15,3687,27,3NGI5ARFTUD9YGX8N4VXWBHU4YW1PD,,142,graduated_college,1535480626625,4,male,386T3MLZLN3LYFFFF2KK8079FOS082,english,images/142red_dots_i.png,129,Tue Aug 28 2018 11:21:51 GMT-0700 (Pacific Daylight Time),1535480511450,1.9195833333333334,4,main,A2CK0OXMPOR9LE
15,2395,27,3NGI5ARFTUD9YGX8N4VXWBHU4YW1PD,,11,graduated_college,1535480626625,4,male,386T3MLZLN3LYFFFF2KK8079FOS082,english,images/11red_dots_d.png,15,Tue Aug 28 2018 11:21:51 GMT-0700 (Pacific Daylight Time),1535480511450,1.9195833333333334,5,main,A2CK0OXMPOR9LE
15,2692,27,3NGI5ARFTUD9YGX8N4VXWBHU4YW1PD,,110,graduated_college,1535480626625,4,male,386T3MLZLN3LYFFFF2KK8079FOS082,english,images/110red_dots_a.png,101,Tue Aug 28 2018 11:21:51 GMT-0700 (Pacific Daylight Time),1535480511450,1.9195833333333334,6,main,A2CK0OXMPOR9LE
15,4578,27,3NGI5ARFTUD9YGX8N4VXWBHU4YW1PD,,187,graduated_college,1535480626625,4,male,386T3MLZLN3LYFFFF2KK8079FOS082,english,images/187red_dots_a.png,313,Tue Aug 28 2018 11:21:51 GMT-0700 (Pacific Daylight Time),1535480511450,1.9195833333333334,7,main,A2CK0OXMPOR9LE
15,2455,27,3NGI5ARFTUD9YGX8N4VXWBHU4YW1PD,,34,graduated_college,1535480626625,4,male,386T3MLZLN3LYFFFF2KK8079FOS082,english,images/34red_dots_c.png,63,Tue Aug 28 2018 11:21:51 GMT-0700 (Pacific Daylight Time),1535480511450,1.9195833333333334,8,main,A2CK0OXMPOR9LE
15,3676,27,3NGI5ARFTUD9YGX8N4VXWBHU4YW1PD,,370,graduated_college,1535480626625,4,male,386T3MLZLN3LYFFFF2KK8079FOS082,english,images/370red_dots_a.png,412,Tue Aug 28 2018 11:21:51 GMT-0700 (Pacific Daylight Time),1535480511450,1.9195833333333334,9,main,A2CK0OXMPOR9LE
15,3209,27,3NGI5ARFTUD9YGX8N4VXWBHU4YW1PD,,266,graduated_college,1535480626625,4,male,386T3MLZLN3LYFFFF2KK8079FOS082,english,images/266red_dots_c.png,278,Tue Aug 28 2018 11:21:51 GMT-0700 (Pacific Daylight Time),1535480511450,1.9195833333333334,10,main,A2CK0OXMPOR9LE
15,2376,27,3NGI5ARFTUD9YGX8N4VXWBHU4YW1PD,,244,graduated_college,1535480626625,4,male,386T3MLZLN3LYFFFF2KK8079FOS082,english,images/244red_dots_d.png,344,Tue Aug 28 2018 11:21:51 GMT-0700 (Pacific Daylight Time),1535480511450,1.9195833333333334,11,main,A2CK0OXMPOR9LE
15,2568,27,3NGI5ARFTUD9YGX8N4VXWBHU4YW1PD,,57,graduated_college,1535480626625,4,male,386T3MLZLN3LYFFFF2KK8079FOS082,english,images/57red_dots_h.png,89,Tue Aug 28 2018 11:21:51 GMT-0700 (Pacific Daylight Time),1535480511450,1.9195833333333334,12,main,A2CK0OXMPOR9LE
15,4609,27,3NGI5ARFTUD9YGX8N4VXWBHU4YW1PD,,148,graduated_college,1535480626625,4,male,386T3MLZLN3LYFFFF2KK8079FOS082,english,images/148red_dots_a.png,133,Tue Aug 28 2018 11:21:51 GMT-0700 (Pacific Daylight Time),1535480511450,1.9195833333333334,13,main,A2CK0OXMPOR9LE
15,4692,27,3NGI5ARFTUD9YGX8N4VXWBHU4YW1PD,,307,graduated_college,1535480626625,4,male,386T3MLZLN3LYFFFF2KK8079FOS082,english,images/307red_dots_d.png,333,Tue Aug 28 2018 11:21:51 GMT-0700 (Pacific Daylight Time),1535480511450,1.9195833333333334,14,main,A2CK0OXMPOR9LE
15,3764,27,3NGI5ARFTUD9YGX8N4VXWBHU4YW1PD,,106,graduated_college,1535480626625,4,male,386T3MLZLN3LYFFFF2KK8079FOS082,english,images/106red_dots_h.png,101,Tue Aug 28 2018 11:21:51 GMT-0700 (Pacific Daylight Time),1535480511450,1.9195833333333334,15,main,A2CK0OXMPOR9LE
15,2410,27,3NGI5ARFTUD9YGX8N4VXWBHU4YW1PD,,47,graduated_college,1535480626625,4,male,386T3MLZLN3LYFFFF2KK8079FOS082,english,images/47red_dots_i.png,115,Tue Aug 28 2018 11:21:51 GMT-0700 (Pacific Daylight Time),1535480511450,1.9195833333333334,16,main,A2CK0OXMPOR9LE
15,2915,27,3NGI5ARFTUD9YGX8N4VXWBHU4YW1PD,,296,graduated_college,1535480626625,4,male,386T3MLZLN3LYFFFF2KK8079FOS082,english,images/296red_dots_f.png,381,Tue Aug 28 2018 11:21:51 GMT-0700 (Pacific Daylight Time),1535480511450,1.9195833333333334,17,main,A2CK0OXMPOR9LE
15,2530,27,3NGI5ARFTUD9YGX8N4VXWBHU4YW1PD,,204,graduated_college,1535480626625,4,male,386T3MLZLN3LYFFFF2KK8079FOS082,english,images/204red_dots_c.png,216,Tue Aug 28 2018 11:21:51 GMT-0700 (Pacific Daylight Time),1535480511450,1.9195833333333334,18,main,A2CK0OXMPOR9LE
15,8664,27,3NGI5ARFTUD9YGX8N4VXWBHU4YW1PD,,422,graduated_college,1535480626625,4,male,386T3MLZLN3LYFFFF2KK8079FOS082,english,images/422red_dots_c.png,429,Tue Aug 28 2018 11:21:51 GMT-0700 (Pacific Daylight Time),1535480511450,1.9195833333333334,19,main,A2CK0OXMPOR9LE
15,2944,27,3NGI5ARFTUD9YGX8N4VXWBHU4YW1PD,,342,graduated_college,1535480626625,4,male,386T3MLZLN3LYFFFF2KK8079FOS082,english,images/342red_dots_g.png,371,Tue Aug 28 2018 11:21:51 GMT-0700 (Pacific Daylight Time),1535480511450,1.9195833333333334,20,main,A2CK0OXMPOR9LE
15,2244,27,3NGI5ARFTUD9YGX8N4VXWBHU4YW1PD,,278,graduated_college,1535480626625,4,male,386T3MLZLN3LYFFFF2KK8079FOS082,english,images/278red_dots_d.png,286,Tue Aug 28 2018 11:21:51 GMT-0700 (Pacific Daylight Time),1535480511450,1.9195833333333334,21,main,A2CK0OXMPOR9LE
15,2307,27,3NGI5ARFTUD9YGX8N4VXWBHU4YW1PD,,178,graduated_college,1535480626625,4,male,386T3MLZLN3LYFFFF2KK8079FOS082,english,images/178red_dots_d.png,216,Tue Aug 28 2018 11:21:51 GMT-0700 (Pacific Daylight Time),1535480511450,1.9195833333333334,22,main,A2CK0OXMPOR9LE
15,2490,27,3NGI5ARFTUD9YGX8N4VXWBHU4YW1PD,,79,graduated_college,1535480626625,4,male,386T3MLZLN3LYFFFF2KK8079FOS082,english,images/79red_dots_e.png,80,Tue Aug 28 2018 11:21:51 GMT-0700 (Pacific Daylight Time),1535480511450,1.9195833333333334,23,main,A2CK0OXMPOR9LE
15,5366,27,3NGI5ARFTUD9YGX8N4VXWBHU4YW1PD,,391,graduated_college,1535480626625,4,male,386T3MLZLN3LYFFFF2KK8079FOS082,english,images/391red_dots_b.png,416,Tue Aug 28 2018 11:21:51 GMT-0700 (Pacific Daylight Time),1535480511450,1.9195833333333334,24,main,A2CK0OXMPOR9LE
19,8841,33,3VSOLARPKCHKGWVGTJDJYEWCXES93I,,126,graduated_college,1535481053754,4,male,386T3MLZLN3LYFFFF2KK8079FOS082,English,images/126red_dots_a.png,134,Tue Aug 28 2018 11:26:03 GMT-0700 (Pacific Daylight Time),1535480763833,4.832016666666667,1,practice,A2RBF3IIJP15IH
19,5564,33,3VSOLARPKCHKGWVGTJDJYEWCXES93I,,252,graduated_college,1535481053754,4,male,386T3MLZLN3LYFFFF2KK8079FOS082,English,images/252red_dots_a.png,364,Tue Aug 28 2018 11:26:03 GMT-0700 (Pacific Daylight Time),1535480763833,4.832016666666667,2,practice,A2RBF3IIJP15IH
19,5264,33,3VSOLARPKCHKGWVGTJDJYEWCXES93I,,323,graduated_college,1535481053754,4,male,386T3MLZLN3LYFFFF2KK8079FOS082,English,images/323red_dots_c.png,360,Tue Aug 28 2018 11:26:03 GMT-0700 (Pacific Daylight Time),1535480763833,4.832016666666667,1,main,A2RBF3IIJP15IH
19,8338,33,3VSOLARPKCHKGWVGTJDJYEWCXES93I,,9,graduated_college,1535481053754,4,male,386T3MLZLN3LYFFFF2KK8079FOS082,English,images/9red_dots_e.png,8,Tue Aug 28 2018 11:26:03 GMT-0700 (Pacific Daylight Time),1535480763833,4.832016666666667,2,main,A2RBF3IIJP15IH
19,5975,33,3VSOLARPKCHKGWVGTJDJYEWCXES93I,,412,graduated_college,1535481053754,4,male,386T3MLZLN3LYFFFF2KK8079FOS082,English,images/412red_dots_i.png,416,Tue Aug 28 2018 11:26:03 GMT-0700 (Pacific Daylight Time),1535480763833,4.832016666666667,3,main,A2RBF3IIJP15IH
19,4572,33,3VSOLARPKCHKGWVGTJDJYEWCXES93I,,34,graduated_college,1535481053754,4,male,386T3MLZLN3LYFFFF2KK8079FOS082,English,images/34red_dots_e.png,13,Tue Aug 28 2018 11:26:03 GMT-0700 (Pacific Daylight Time),1535480763833,4.832016666666667,4,main,A2RBF3IIJP15IH
19,5532,33,3VSOLARPKCHKGWVGTJDJYEWCXES93I,,194,graduated_college,1535481053754,4,male,386T3MLZLN3LYFFFF2KK8079FOS082,English,images/194red_dots_a.png,195,Tue Aug 28 2018 11:26:03 GMT-0700 (Pacific Daylight Time),1535480763833,4.832016666666667,5,main,A2RBF3IIJP15IH
19,8738,33,3VSOLARPKCHKGWVGTJDJYEWCXES93I,,281,graduated_college,1535481053754,4,male,386T3MLZLN3LYFFFF2KK8079FOS082,English,images/281red_dots_b.png,370,Tue Aug 28 2018 11:26:03 GMT-0700 (Pacific Daylight Time),1535480763833,4.832016666666667,6,main,A2RBF3IIJP15IH
19,3165,33,3VSOLARPKCHKGWVGTJDJYEWCXES93I,,242,graduated_college,1535481053754,4,male,386T3MLZLN3LYFFFF2KK8079FOS082,English,images/242red_dots_g.png,287,Tue Aug 28 2018 11:26:03 GMT-0700 (Pacific Daylight Time),1535480763833,4.832016666666667,7,main,A2RBF3IIJP15IH
19,3144,33,3VSOLARPKCHKGWVGTJDJYEWCXES93I,,345,graduated_college,1535481053754,4,male,386T3MLZLN3LYFFFF2KK8079FOS082,English,images/345red_dots_i.png,365,Tue Aug 28 2018 11:26:03 GMT-0700 (Pacific Daylight Time),1535480763833,4.832016666666667,8,main,A2RBF3IIJP15IH
19,3318,33,3VSOLARPKCHKGWVGTJDJYEWCXES93I,,129,graduated_college,1535481053754,4,male,386T3MLZLN3LYFFFF2KK8079FOS082,English,images/129red_dots_j.png,65,Tue Aug 28 2018 11:26:03 GMT-0700 (Pacific Daylight Time),1535480763833,4.832016666666667,9,main,A2RBF3IIJP15IH
19,2414,33,3VSOLARPKCHKGWVGTJDJYEWCXES93I,,257,graduated_college,1535481053754,4,male,386T3MLZLN3LYFFFF2KK8079FOS082,English,images/257red_dots_b.png,252,Tue Aug 28 2018 11:26:03 GMT-0700 (Pacific Daylight Time),1535480763833,4.832016666666667,10,main,A2RBF3IIJP15IH
19,4725,33,3VSOLARPKCHKGWVGTJDJYEWCXES93I,,417,graduated_college,1535481053754,4,male,386T3MLZLN3LYFFFF2KK8079FOS082,English,images/417red_dots_h.png,414,Tue Aug 28 2018 11:26:03 GMT-0700 (Pacific Daylight Time),1535480763833,4.832016666666667,11,main,A2RBF3IIJP15IH
19,4303,33,3VSOLARPKCHKGWVGTJDJYEWCXES93I,,95,graduated_college,1535481053754,4,male,386T3MLZLN3LYFFFF2KK8079FOS082,English,images/95red_dots_f.png,50,Tue Aug 28 2018 11:26:03 GMT-0700 (Pacific Daylight Time),1535480763833,4.832016666666667,12,main,A2RBF3IIJP15IH
19,8279,33,3VSOLARPKCHKGWVGTJDJYEWCXES93I,,364,graduated_college,1535481053754,4,male,386T3MLZLN3LYFFFF2KK8079FOS082,English,images/364red_dots_c.png,396,Tue Aug 28 2018 11:26:03 GMT-0700 (Pacific Daylight Time),1535480763833,4.832016666666667,13,main,A2RBF3IIJP15IH
19,4475,33,3VSOLARPKCHKGWVGTJDJYEWCXES93I,,47,graduated_college,1535481053754,4,male,386T3MLZLN3LYFFFF2KK8079FOS082,English,images/47red_dots_d.png,33,Tue Aug 28 2018 11:26:03 GMT-0700 (Pacific Daylight Time),1535480763833,4.832016666666667,14,main,A2RBF3IIJP15IH
19,2867,33,3VSOLARPKCHKGWVGTJDJYEWCXES93I,,221,graduated_college,1535481053754,4,male,386T3MLZLN3LYFFFF2KK8079FOS082,English,images/221red_dots_j.png,248,Tue Aug 28 2018 11:26:03 GMT-0700 (Pacific Daylight Time),1535480763833,4.832016666666667,15,main,A2RBF3IIJP15IH
19,3117,33,3VSOLARPKCHKGWVGTJDJYEWCXES93I,,214,graduated_college,1535481053754,4,male,386T3MLZLN3LYFFFF2KK8079FOS082,English,images/214red_dots_a.png,203,Tue Aug 28 2018 11:26:03 GMT-0700 (Pacific Daylight Time),1535480763833,4.832016666666667,16,main,A2RBF3IIJP15IH
19,4366,33,3VSOLARPKCHKGWVGTJDJYEWCXES93I,,382,graduated_college,1535481053754,4,male,386T3MLZLN3LYFFFF2KK8079FOS082,English,images/382red_dots_f.png,374,Tue Aug 28 2018 11:26:03 GMT-0700 (Pacific Daylight Time),1535480763833,4.832016666666667,17,main,A2RBF3IIJP15IH
19,4843,33,3VSOLARPKCHKGWVGTJDJYEWCXES93I,,294,graduated_college,1535481053754,4,male,386T3MLZLN3LYFFFF2KK8079FOS082,English,images/294red_dots_h.png,371,Tue Aug 28 2018 11:26:03 GMT-0700 (Pacific Daylight Time),1535480763833,4.832016666666667,18,main,A2RBF3IIJP15IH
19,3426,33,3VSOLARPKCHKGWVGTJDJYEWCXES93I,,59,graduated_college,1535481053754,4,male,386T3MLZLN3LYFFFF2KK8079FOS082,English,images/59red_dots_i.png,40,Tue Aug 28 2018 11:26:03 GMT-0700 (Pacific Daylight Time),1535480763833,4.832016666666667,19,main,A2RBF3IIJP15IH
19,4347,33,3VSOLARPKCHKGWVGTJDJYEWCXES93I,,170,graduated_college,1535481053754,4,male,386T3MLZLN3LYFFFF2KK8079FOS082,English,images/170red_dots_b.png,134,Tue Aug 28 2018 11:26:03 GMT-0700 (Pacific Daylight Time),1535480763833,4.832016666666667,20,main,A2RBF3IIJP15IH
19,9330,33,3VSOLARPKCHKGWVGTJDJYEWCXES93I,,82,graduated_college,1535481053754,4,male,386T3MLZLN3LYFFFF2KK8079FOS082,English,images/82red_dots_e.png,82,Tue Aug 28 2018 11:26:03 GMT-0700 (Pacific Daylight Time),1535480763833,4.832016666666667,21,main,A2RBF3IIJP15IH
19,9311,33,3VSOLARPKCHKGWVGTJDJYEWCXES93I,,117,graduated_college,1535481053754,4,male,386T3MLZLN3LYFFFF2KK8079FOS082,English,images/117red_dots_d.png,69,Tue Aug 28 2018 11:26:03 GMT-0700 (Pacific Daylight Time),1535480763833,4.832016666666667,22,main,A2RBF3IIJP15IH
19,4022,33,3VSOLARPKCHKGWVGTJDJYEWCXES93I,,325,graduated_college,1535481053754,4,male,386T3MLZLN3LYFFFF2KK8079FOS082,English,images/325red_dots_d.png,346,Tue Aug 28 2018 11:26:03 GMT-0700 (Pacific Daylight Time),1535480763833,4.832016666666667,23,main,A2RBF3IIJP15IH
19,2850,33,3VSOLARPKCHKGWVGTJDJYEWCXES93I,,160,graduated_college,1535481053754,4,male,386T3MLZLN3LYFFFF2KK8079FOS082,English,images/160red_dots_b.png,171,Tue Aug 28 2018 11:26:03 GMT-0700 (Pacific Daylight Time),1535480763833,4.832016666666667,24,main,A2RBF3IIJP15IH
16,19585,37,3WAKVUDHUXO017K6T6B07RV6F1NU7Y,There are no technical issues or problems.,241,graduated_high_school,1535480710343,4,female,386T3MLZLN3LYFFFF2KK8079FOS082,English,images/241red_dots_a.png,254,Tue Aug 28 2018 11:18:56 GMT-0700 (Pacific Daylight Time),1535480336437,6.231766666666666,1,practice,A1ERMRNNR0CZ2Y
16,4202,37,3WAKVUDHUXO017K6T6B07RV6F1NU7Y,There are no technical issues or problems.,95,graduated_high_school,1535480710343,4,female,386T3MLZLN3LYFFFF2KK8079FOS082,English,images/95red_dots_a.png,108,Tue Aug 28 2018 11:18:56 GMT-0700 (Pacific Daylight Time),1535480336437,6.231766666666666,2,practice,A1ERMRNNR0CZ2Y
16,4150,37,3WAKVUDHUXO017K6T6B07RV6F1NU7Y,There are no technical issues or problems.,240,graduated_high_school,1535480710343,4,female,386T3MLZLN3LYFFFF2KK8079FOS082,English,images/240red_dots_c.png,381,Tue Aug 28 2018 11:18:56 GMT-0700 (Pacific Daylight Time),1535480336437,6.231766666666666,1,main,A1ERMRNNR0CZ2Y
16,7327,37,3WAKVUDHUXO017K6T6B07RV6F1NU7Y,There are no technical issues or problems.,258,graduated_high_school,1535480710343,4,female,386T3MLZLN3LYFFFF2KK8079FOS082,English,images/258red_dots_d.png,266,Tue Aug 28 2018 11:18:56 GMT-0700 (Pacific Daylight Time),1535480336437,6.231766666666666,2,main,A1ERMRNNR0CZ2Y
16,4071,37,3WAKVUDHUXO017K6T6B07RV6F1NU7Y,There are no technical issues or problems.,358,graduated_high_school,1535480710343,4,female,386T3MLZLN3LYFFFF2KK8079FOS082,English,images/358red_dots_a.png,412,Tue Aug 28 2018 11:18:56 GMT-0700 (Pacific Daylight Time),1535480336437,6.231766666666666,3,main,A1ERMRNNR0CZ2Y
16,3279,37,3WAKVUDHUXO017K6T6B07RV6F1NU7Y,There are no technical issues or problems.,138,graduated_high_school,1535480710343,4,female,386T3MLZLN3LYFFFF2KK8079FOS082,English,images/138red_dots_c.png,36,Tue Aug 28 2018 11:18:56 GMT-0700 (Pacific Daylight Time),1535480336437,6.231766666666666,4,main,A1ERMRNNR0CZ2Y
16,6747,37,3WAKVUDHUXO017K6T6B07RV6F1NU7Y,There are no technical issues or problems.,341,graduated_high_school,1535480710343,4,female,386T3MLZLN3LYFFFF2KK8079FOS082,English,images/341red_dots_c.png,312,Tue Aug 28 2018 11:18:56 GMT-0700 (Pacific Daylight Time),1535480336437,6.231766666666666,5,main,A1ERMRNNR0CZ2Y
16,2858,37,3WAKVUDHUXO017K6T6B07RV6F1NU7Y,There are no technical issues or problems.,429,graduated_high_school,1535480710343,4,female,386T3MLZLN3LYFFFF2KK8079FOS082,English,images/429red_dots_j.png,432,Tue Aug 28 2018 11:18:56 GMT-0700 (Pacific Daylight Time),1535480336437,6.231766666666666,6,main,A1ERMRNNR0CZ2Y
16,21088,37,3WAKVUDHUXO017K6T6B07RV6F1NU7Y,There are no technical issues or problems.,100,graduated_high_school,1535480710343,4,female,386T3MLZLN3LYFFFF2KK8079FOS082,English,images/100red_dots_g.png,27,Tue Aug 28 2018 11:18:56 GMT-0700 (Pacific Daylight Time),1535480336437,6.231766666666666,7,main,A1ERMRNNR0CZ2Y
16,3644,37,3WAKVUDHUXO017K6T6B07RV6F1NU7Y,There are no technical issues or problems.,226,graduated_high_school,1535480710343,4,female,386T3MLZLN3LYFFFF2KK8079FOS082,English,images/226red_dots_g.png,156,Tue Aug 28 2018 11:18:56 GMT-0700 (Pacific Daylight Time),1535480336437,6.231766666666666,8,main,A1ERMRNNR0CZ2Y
16,4850,37,3WAKVUDHUXO017K6T6B07RV6F1NU7Y,There are no technical issues or problems.,21,graduated_high_school,1535480710343,4,female,386T3MLZLN3LYFFFF2KK8079FOS082,English,images/21red_dots_i.png,6,Tue Aug 28 2018 11:18:56 GMT-0700 (Pacific Daylight Time),1535480336437,6.231766666666666,9,main,A1ERMRNNR0CZ2Y
16,4285,37,3WAKVUDHUXO017K6T6B07RV6F1NU7Y,There are no technical issues or problems.,71,graduated_high_school,1535480710343,4,female,386T3MLZLN3LYFFFF2KK8079FOS082,English,images/71red_dots_a.png,23,Tue Aug 28 2018 11:18:56 GMT-0700 (Pacific Daylight Time),1535480336437,6.231766666666666,10,main,A1ERMRNNR0CZ2Y
16,3566,37,3WAKVUDHUXO017K6T6B07RV6F1NU7Y,There are no technical issues or problems.,85,graduated_high_school,1535480710343,4,female,386T3MLZLN3LYFFFF2KK8079FOS082,English,images/85red_dots_b.png,59,Tue Aug 28 2018 11:18:56 GMT-0700 (Pacific Daylight Time),1535480336437,6.231766666666666,11,main,A1ERMRNNR0CZ2Y
16,7004,37,3WAKVUDHUXO017K6T6B07RV6F1NU7Y,There are no technical issues or problems.,298,graduated_high_school,1535480710343,4,female,386T3MLZLN3LYFFFF2KK8079FOS082,English,images/298red_dots_d.png,342,Tue Aug 28 2018 11:18:56 GMT-0700 (Pacific Daylight Time),1535480336437,6.231766666666666,12,main,A1ERMRNNR0CZ2Y
16,4831,37,3WAKVUDHUXO017K6T6B07RV6F1NU7Y,There are no technical issues or problems.,288,graduated_high_school,1535480710343,4,female,386T3MLZLN3LYFFFF2KK8079FOS082,English,images/288red_dots_d.png,337,Tue Aug 28 2018 11:18:56 GMT-0700 (Pacific Daylight Time),1535480336437,6.231766666666666,13,main,A1ERMRNNR0CZ2Y
16,4577,37,3WAKVUDHUXO017K6T6B07RV6F1NU7Y,There are no technical issues or problems.,379,graduated_high_school,1535480710343,4,female,386T3MLZLN3LYFFFF2KK8079FOS082,English,images/379red_dots_a.png,401,Tue Aug 28 2018 11:18:56 GMT-0700 (Pacific Daylight Time),1535480336437,6.231766666666666,14,main,A1ERMRNNR0CZ2Y
16,3659,37,3WAKVUDHUXO017K6T6B07RV6F1NU7Y,There are no technical issues or problems.,161,graduated_high_school,1535480710343,4,female,386T3MLZLN3LYFFFF2KK8079FOS082,English,images/161red_dots_c.png,114,Tue Aug 28 2018 11:18:56 GMT-0700 (Pacific Daylight Time),1535480336437,6.231766666666666,15,main,A1ERMRNNR0CZ2Y
16,4311,37,3WAKVUDHUXO017K6T6B07RV6F1NU7Y,There are no technical issues or problems.,216,graduated_high_school,1535480710343,4,female,386T3MLZLN3LYFFFF2KK8079FOS082,English,images/216red_dots_e.png,156,Tue Aug 28 2018 11:18:56 GMT-0700 (Pacific Daylight Time),1535480336437,6.231766666666666,16,main,A1ERMRNNR0CZ2Y
16,7655,37,3WAKVUDHUXO017K6T6B07RV6F1NU7Y,There are no technical issues or problems.,15,graduated_high_school,1535480710343,4,female,386T3MLZLN3LYFFFF2KK8079FOS082,English,images/15red_dots_e.png,6,Tue Aug 28 2018 11:18:56 GMT-0700 (Pacific Daylight Time),1535480336437,6.231766666666666,17,main,A1ERMRNNR0CZ2Y
16,3473,37,3WAKVUDHUXO017K6T6B07RV6F1NU7Y,There are no technical issues or problems.,123,graduated_high_school,1535480710343,4,female,386T3MLZLN3LYFFFF2KK8079FOS082,English,images/123red_dots_d.png,35,Tue Aug 28 2018 11:18:56 GMT-0700 (Pacific Daylight Time),1535480336437,6.231766666666666,18,main,A1ERMRNNR0CZ2Y
16,8867,37,3WAKVUDHUXO017K6T6B07RV6F1NU7Y,There are no technical issues or problems.,307,graduated_high_school,1535480710343,4,female,386T3MLZLN3LYFFFF2KK8079FOS082,English,images/307red_dots_c.png,367,Tue Aug 28 2018 11:18:56 GMT-0700 (Pacific Daylight Time),1535480336437,6.231766666666666,19,main,A1ERMRNNR0CZ2Y
16,3082,37,3WAKVUDHUXO017K6T6B07RV6F1NU7Y,There are no technical issues or problems.,365,graduated_high_school,1535480710343,4,female,386T3MLZLN3LYFFFF2KK8079FOS082,English,images/365red_dots_b.png,409,Tue Aug 28 2018 11:18:56 GMT-0700 (Pacific Daylight Time),1535480336437,6.231766666666666,20,main,A1ERMRNNR0CZ2Y
16,5083,37,3WAKVUDHUXO017K6T6B07RV6F1NU7Y,There are no technical issues or problems.,183,graduated_high_school,1535480710343,4,female,386T3MLZLN3LYFFFF2KK8079FOS082,English,images/183red_dots_b.png,228,Tue Aug 28 2018 11:18:56 GMT-0700 (Pacific Daylight Time),1535480336437,6.231766666666666,21,main,A1ERMRNNR0CZ2Y
16,3067,37,3WAKVUDHUXO017K6T6B07RV6F1NU7Y,There are no technical issues or problems.,52,graduated_high_school,1535480710343,4,female,386T3MLZLN3LYFFFF2KK8079FOS082,English,images/52red_dots_c.png,9,Tue Aug 28 2018 11:18:56 GMT-0700 (Pacific Daylight Time),1535480336437,6.231766666666666,22,main,A1ERMRNNR0CZ2Y
16,8214,37,3WAKVUDHUXO017K6T6B07RV6F1NU7Y,There are no technical issues or problems.,179,graduated_high_school,1535480710343,4,female,386T3MLZLN3LYFFFF2KK8079FOS082,English,images/179red_dots_g.png,107,Tue Aug 28 2018 11:18:56 GMT-0700 (Pacific Daylight Time),1535480336437,6.231766666666666,23,main,A1ERMRNNR0CZ2Y
16,4270,37,3WAKVUDHUXO017K6T6B07RV6F1NU7Y,There are no technical issues or problems.,404,graduated_high_school,1535480710343,4,female,386T3MLZLN3LYFFFF2KK8079FOS082,English,images/404red_dots_j.png,419,Tue Aug 28 2018 11:18:56 GMT-0700 (Pacific Daylight Time),1535480336437,6.231766666666666,24,main,A1ERMRNNR0CZ2Y
17,3363,23,3D8YOU6S9FSHX761AW681DVAKQ3U6Z,,346,graduated_college,1535480833302,4,male,386T3MLZLN3LYFFFF2KK8079FOS082,english,images/346red_dots_a.png,342,Tue Aug 28 2018 13:25:49 GMT-0500 (Central Daylight Time),1535480749280,1.4003666666666668,1,practice,A2JP9IKRHNLRPI
17,3089,23,3D8YOU6S9FSHX761AW681DVAKQ3U6Z,,411,graduated_college,1535480833302,4,male,386T3MLZLN3LYFFFF2KK8079FOS082,english,images/411red_dots_a.png,417,Tue Aug 28 2018 13:25:49 GMT-0500 (Central Daylight Time),1535480749280,1.4003666666666668,2,practice,A2JP9IKRHNLRPI
17,3005,23,3D8YOU6S9FSHX761AW681DVAKQ3U6Z,,385,graduated_college,1535480833302,4,male,386T3MLZLN3LYFFFF2KK8079FOS082,english,images/385red_dots_b.png,393,Tue Aug 28 2018 13:25:49 GMT-0500 (Central Daylight Time),1535480749280,1.4003666666666668,1,main,A2JP9IKRHNLRPI
17,3539,23,3D8YOU6S9FSHX761AW681DVAKQ3U6Z,,259,graduated_college,1535480833302,4,male,386T3MLZLN3LYFFFF2KK8079FOS082,english,images/259red_dots_b.png,281,Tue Aug 28 2018 13:25:49 GMT-0500 (Central Daylight Time),1535480749280,1.4003666666666668,2,main,A2JP9IKRHNLRPI
17,4548,23,3D8YOU6S9FSHX761AW681DVAKQ3U6Z,,66,graduated_college,1535480833302,4,male,386T3MLZLN3LYFFFF2KK8079FOS082,english,images/66red_dots_g.png,29,Tue Aug 28 2018 13:25:49 GMT-0500 (Central Daylight Time),1535480749280,1.4003666666666668,3,main,A2JP9IKRHNLRPI
17,1723,23,3D8YOU6S9FSHX761AW681DVAKQ3U6Z,,294,graduated_college,1535480833302,4,male,386T3MLZLN3LYFFFF2KK8079FOS082,english,images/294red_dots_g.png,337,Tue Aug 28 2018 13:25:49 GMT-0500 (Central Daylight Time),1535480749280,1.4003666666666668,4,main,A2JP9IKRHNLRPI
17,2725,23,3D8YOU6S9FSHX761AW681DVAKQ3U6Z,,409,graduated_college,1535480833302,4,male,386T3MLZLN3LYFFFF2KK8079FOS082,english,images/409red_dots_e.png,413,Tue Aug 28 2018 13:25:49 GMT-0500 (Central Daylight Time),1535480749280,1.4003666666666668,5,main,A2JP9IKRHNLRPI
17,2543,23,3D8YOU6S9FSHX761AW681DVAKQ3U6Z,,75,graduated_college,1535480833302,4,male,386T3MLZLN3LYFFFF2KK8079FOS082,english,images/75red_dots_h.png,11,Tue Aug 28 2018 13:25:49 GMT-0500 (Central Daylight Time),1535480749280,1.4003666666666668,6,main,A2JP9IKRHNLRPI
17,2888,23,3D8YOU6S9FSHX761AW681DVAKQ3U6Z,,424,graduated_college,1535480833302,4,male,386T3MLZLN3LYFFFF2KK8079FOS082,english,images/424red_dots_g.png,426,Tue Aug 28 2018 13:25:49 GMT-0500 (Central Daylight Time),1535480749280,1.4003666666666668,7,main,A2JP9IKRHNLRPI
17,2745,23,3D8YOU6S9FSHX761AW681DVAKQ3U6Z,,217,graduated_college,1535480833302,4,male,386T3MLZLN3LYFFFF2KK8079FOS082,english,images/217red_dots_j.png,186,Tue Aug 28 2018 13:25:49 GMT-0500 (Central Daylight Time),1535480749280,1.4003666666666668,8,main,A2JP9IKRHNLRPI
17,1791,23,3D8YOU6S9FSHX761AW681DVAKQ3U6Z,,171,graduated_college,1535480833302,4,male,386T3MLZLN3LYFFFF2KK8079FOS082,english,images/171red_dots_a.png,121,Tue Aug 28 2018 13:25:49 GMT-0500 (Central Daylight Time),1535480749280,1.4003666666666668,9,main,A2JP9IKRHNLRPI
17,1788,23,3D8YOU6S9FSHX761AW681DVAKQ3U6Z,,54,graduated_college,1535480833302,4,male,386T3MLZLN3LYFFFF2KK8079FOS082,english,images/54red_dots_b.png,60,Tue Aug 28 2018 13:25:49 GMT-0500 (Central Daylight Time),1535480749280,1.4003666666666668,10,main,A2JP9IKRHNLRPI
17,1840,23,3D8YOU6S9FSHX761AW681DVAKQ3U6Z,,115,graduated_college,1535480833302,4,male,386T3MLZLN3LYFFFF2KK8079FOS082,english,images/115red_dots_f.png,34,Tue Aug 28 2018 13:25:49 GMT-0500 (Central Daylight Time),1535480749280,1.4003666666666668,11,main,A2JP9IKRHNLRPI
17,1683,23,3D8YOU6S9FSHX761AW681DVAKQ3U6Z,,187,graduated_college,1535480833302,4,male,386T3MLZLN3LYFFFF2KK8079FOS082,english,images/187red_dots_h.png,144,Tue Aug 28 2018 13:25:49 GMT-0500 (Central Daylight Time),1535480749280,1.4003666666666668,12,main,A2JP9IKRHNLRPI
17,1772,23,3D8YOU6S9FSHX761AW681DVAKQ3U6Z,,361,graduated_college,1535480833302,4,male,386T3MLZLN3LYFFFF2KK8079FOS082,english,images/361red_dots_j.png,371,Tue Aug 28 2018 13:25:49 GMT-0500 (Central Daylight Time),1535480749280,1.4003666666666668,13,main,A2JP9IKRHNLRPI
17,3285,23,3D8YOU6S9FSHX761AW681DVAKQ3U6Z,,28,graduated_college,1535480833302,4,male,386T3MLZLN3LYFFFF2KK8079FOS082,english,images/28red_dots_b.png,9,Tue Aug 28 2018 13:25:49 GMT-0500 (Central Daylight Time),1535480749280,1.4003666666666668,14,main,A2JP9IKRHNLRPI
17,1856,23,3D8YOU6S9FSHX761AW681DVAKQ3U6Z,,108,graduated_college,1535480833302,4,male,386T3MLZLN3LYFFFF2KK8079FOS082,english,images/108red_dots_e.png,48,Tue Aug 28 2018 13:25:49 GMT-0500 (Central Daylight Time),1535480749280,1.4003666666666668,15,main,A2JP9IKRHNLRPI
17,3657,23,3D8YOU6S9FSHX761AW681DVAKQ3U6Z,,11,graduated_college,1535480833302,4,male,386T3MLZLN3LYFFFF2KK8079FOS082,english,images/11red_dots_a.png,18,Tue Aug 28 2018 13:25:49 GMT-0500 (Central Daylight Time),1535480749280,1.4003666666666668,16,main,A2JP9IKRHNLRPI
17,2189,23,3D8YOU6S9FSHX761AW681DVAKQ3U6Z,,273,graduated_college,1535480833302,4,male,386T3MLZLN3LYFFFF2KK8079FOS082,english,images/273red_dots_j.png,305,Tue Aug 28 2018 13:25:49 GMT-0500 (Central Daylight Time),1535480749280,1.4003666666666668,17,main,A2JP9IKRHNLRPI
17,2629,23,3D8YOU6S9FSHX761AW681DVAKQ3U6Z,,344,graduated_college,1535480833302,4,male,386T3MLZLN3LYFFFF2KK8079FOS082,english,images/344red_dots_a.png,357,Tue Aug 28 2018 13:25:49 GMT-0500 (Central Daylight Time),1535480749280,1.4003666666666668,18,main,A2JP9IKRHNLRPI
17,2617,23,3D8YOU6S9FSHX761AW681DVAKQ3U6Z,,236,graduated_college,1535480833302,4,male,386T3MLZLN3LYFFFF2KK8079FOS082,english,images/236red_dots_d.png,258,Tue Aug 28 2018 13:25:49 GMT-0500 (Central Daylight Time),1535480749280,1.4003666666666668,19,main,A2JP9IKRHNLRPI
17,1882,23,3D8YOU6S9FSHX761AW681DVAKQ3U6Z,,324,graduated_college,1535480833302,4,male,386T3MLZLN3LYFFFF2KK8079FOS082,english,images/324red_dots_d.png,337,Tue Aug 28 2018 13:25:49 GMT-0500 (Central Daylight Time),1535480749280,1.4003666666666668,20,main,A2JP9IKRHNLRPI
17,2226,23,3D8YOU6S9FSHX761AW681DVAKQ3U6Z,,136,graduated_college,1535480833302,4,male,386T3MLZLN3LYFFFF2KK8079FOS082,english,images/136red_dots_j.png,130,Tue Aug 28 2018 13:25:49 GMT-0500 (Central Daylight Time),1535480749280,1.4003666666666668,21,main,A2JP9IKRHNLRPI
17,1609,23,3D8YOU6S9FSHX761AW681DVAKQ3U6Z,,336,graduated_college,1535480833302,4,male,386T3MLZLN3LYFFFF2KK8079FOS082,english,images/336red_dots_d.png,328,Tue Aug 28 2018 13:25:49 GMT-0500 (Central Daylight Time),1535480749280,1.4003666666666668,22,main,A2JP9IKRHNLRPI
17,2049,23,3D8YOU6S9FSHX761AW681DVAKQ3U6Z,,213,graduated_college,1535480833302,4,male,386T3MLZLN3LYFFFF2KK8079FOS082,english,images/213red_dots_b.png,240,Tue Aug 28 2018 13:25:49 GMT-0500 (Central Daylight Time),1535480749280,1.4003666666666668,23,main,A2JP9IKRHNLRPI
17,2591,23,3D8YOU6S9FSHX761AW681DVAKQ3U6Z,,145,graduated_college,1535480833302,4,male,386T3MLZLN3LYFFFF2KK8079FOS082,english,images/145red_dots_a.png,180,Tue Aug 28 2018 13:25:49 GMT-0500 (Central Daylight Time),1535480749280,1.4003666666666668,24,main,A2JP9IKRHNLRPI
25,12334,75,3300DTYQT3PTITSZZ55130QYY3MEQ0,,271,graduated_college,1535481267008,4,female,386T3MLZLN3LYFFFF2KK8079FOS082,English,images/271red_dots_a.png,308,Tue Aug 28 2018 13:31:52 GMT-0500 (Central Daylight Time),1535481112356,2.5775333333333332,1,practice,AJ204D5LUWTVY
25,4943,75,3300DTYQT3PTITSZZ55130QYY3MEQ0,,306,graduated_college,1535481267008,4,female,386T3MLZLN3LYFFFF2KK8079FOS082,English,images/306red_dots_a.png,316,Tue Aug 28 2018 13:31:52 GMT-0500 (Central Daylight Time),1535481112356,2.5775333333333332,2,practice,AJ204D5LUWTVY
25,4095,75,3300DTYQT3PTITSZZ55130QYY3MEQ0,,311,graduated_college,1535481267008,4,female,386T3MLZLN3LYFFFF2KK8079FOS082,English,images/311red_dots_c.png,362,Tue Aug 28 2018 13:31:52 GMT-0500 (Central Daylight Time),1535481112356,2.5775333333333332,1,main,AJ204D5LUWTVY
25,4911,75,3300DTYQT3PTITSZZ55130QYY3MEQ0,,270,graduated_college,1535481267008,4,female,386T3MLZLN3LYFFFF2KK8079FOS082,English,images/270red_dots_b.png,320,Tue Aug 28 2018 13:31:52 GMT-0500 (Central Daylight Time),1535481112356,2.5775333333333332,2,main,AJ204D5LUWTVY
25,6895,75,3300DTYQT3PTITSZZ55130QYY3MEQ0,,141,graduated_college,1535481267008,4,female,386T3MLZLN3LYFFFF2KK8079FOS082,English,images/141red_dots_g.png,128,Tue Aug 28 2018 13:31:52 GMT-0500 (Central Daylight Time),1535481112356,2.5775333333333332,3,main,AJ204D5LUWTVY
25,5295,75,3300DTYQT3PTITSZZ55130QYY3MEQ0,,290,graduated_college,1535481267008,4,female,386T3MLZLN3LYFFFF2KK8079FOS082,English,images/290red_dots_c.png,311,Tue Aug 28 2018 13:31:52 GMT-0500 (Central Daylight Time),1535481112356,2.5775333333333332,4,main,AJ204D5LUWTVY
25,3079,75,3300DTYQT3PTITSZZ55130QYY3MEQ0,,114,graduated_college,1535481267008,4,female,386T3MLZLN3LYFFFF2KK8079FOS082,English,images/114red_dots_i.png,119,Tue Aug 28 2018 13:31:52 GMT-0500 (Central Daylight Time),1535481112356,2.5775333333333332,5,main,AJ204D5LUWTVY
25,4439,75,3300DTYQT3PTITSZZ55130QYY3MEQ0,,165,graduated_college,1535481267008,4,female,386T3MLZLN3LYFFFF2KK8079FOS082,English,images/165red_dots_b.png,145,Tue Aug 28 2018 13:31:52 GMT-0500 (Central Daylight Time),1535481112356,2.5775333333333332,6,main,AJ204D5LUWTVY
25,3600,75,3300DTYQT3PTITSZZ55130QYY3MEQ0,,284,graduated_college,1535481267008,4,female,386T3MLZLN3LYFFFF2KK8079FOS082,English,images/284red_dots_f.png,285,Tue Aug 28 2018 13:31:52 GMT-0500 (Central Daylight Time),1535481112356,2.5775333333333332,7,main,AJ204D5LUWTVY
25,4046,75,3300DTYQT3PTITSZZ55130QYY3MEQ0,,392,graduated_college,1535481267008,4,female,386T3MLZLN3LYFFFF2KK8079FOS082,English,images/392red_dots_f.png,338,Tue Aug 28 2018 13:31:52 GMT-0500 (Central Daylight Time),1535481112356,2.5775333333333332,8,main,AJ204D5LUWTVY
25,4247,75,3300DTYQT3PTITSZZ55130QYY3MEQ0,,154,graduated_college,1535481267008,4,female,386T3MLZLN3LYFFFF2KK8079FOS082,English,images/154red_dots_e.png,152,Tue Aug 28 2018 13:31:52 GMT-0500 (Central Daylight Time),1535481112356,2.5775333333333332,9,main,AJ204D5LUWTVY
25,4183,75,3300DTYQT3PTITSZZ55130QYY3MEQ0,,211,graduated_college,1535481267008,4,female,386T3MLZLN3LYFFFF2KK8079FOS082,English,images/211red_dots_f.png,279,Tue Aug 28 2018 13:31:52 GMT-0500 (Central Daylight Time),1535481112356,2.5775333333333332,10,main,AJ204D5LUWTVY
25,2543,75,3300DTYQT3PTITSZZ55130QYY3MEQ0,,354,graduated_college,1535481267008,4,female,386T3MLZLN3LYFFFF2KK8079FOS082,English,images/354red_dots_a.png,343,Tue Aug 28 2018 13:31:52 GMT-0500 (Central Daylight Time),1535481112356,2.5775333333333332,11,main,AJ204D5LUWTVY
25,7751,75,3300DTYQT3PTITSZZ55130QYY3MEQ0,,369,graduated_college,1535481267008,4,female,386T3MLZLN3LYFFFF2KK8079FOS082,English,images/369red_dots_a.png,334,Tue Aug 28 2018 13:31:52 GMT-0500 (Central Daylight Time),1535481112356,2.5775333333333332,12,main,AJ204D5LUWTVY
25,3656,75,3300DTYQT3PTITSZZ55130QYY3MEQ0,,428,graduated_college,1535481267008,4,female,386T3MLZLN3LYFFFF2KK8079FOS082,English,images/428red_dots_a.png,365,Tue Aug 28 2018 13:31:52 GMT-0500 (Central Daylight Time),1535481112356,2.5775333333333332,13,main,AJ204D5LUWTVY
25,3838,75,3300DTYQT3PTITSZZ55130QYY3MEQ0,,234,graduated_college,1535481267008,4,female,386T3MLZLN3LYFFFF2KK8079FOS082,English,images/234red_dots_a.png,193,Tue Aug 28 2018 13:31:52 GMT-0500 (Central Daylight Time),1535481112356,2.5775333333333332,14,main,AJ204D5LUWTVY
25,3367,75,3300DTYQT3PTITSZZ55130QYY3MEQ0,,51,graduated_college,1535481267008,4,female,386T3MLZLN3LYFFFF2KK8079FOS082,English,images/51red_dots_g.png,41,Tue Aug 28 2018 13:31:52 GMT-0500 (Central Daylight Time),1535481112356,2.5775333333333332,15,main,AJ204D5LUWTVY
25,5448,75,3300DTYQT3PTITSZZ55130QYY3MEQ0,,328,graduated_college,1535481267008,4,female,386T3MLZLN3LYFFFF2KK8079FOS082,English,images/328red_dots_b.png,243,Tue Aug 28 2018 13:31:52 GMT-0500 (Central Daylight Time),1535481112356,2.5775333333333332,16,main,AJ204D5LUWTVY
25,3280,75,3300DTYQT3PTITSZZ55130QYY3MEQ0,,105,graduated_college,1535481267008,4,female,386T3MLZLN3LYFFFF2KK8079FOS082,English,images/105red_dots_g.png,41,Tue Aug 28 2018 13:31:52 GMT-0500 (Central Daylight Time),1535481112356,2.5775333333333332,17,main,AJ204D5LUWTVY
25,7247,75,3300DTYQT3PTITSZZ55130QYY3MEQ0,,235,graduated_college,1535481267008,4,female,386T3MLZLN3LYFFFF2KK8079FOS082,English,images/235red_dots_a.png,244,Tue Aug 28 2018 13:31:52 GMT-0500 (Central Daylight Time),1535481112356,2.5775333333333332,18,main,AJ204D5LUWTVY
25,7655,75,3300DTYQT3PTITSZZ55130QYY3MEQ0,,68,graduated_college,1535481267008,4,female,386T3MLZLN3LYFFFF2KK8079FOS082,English,images/68red_dots_i.png,69,Tue Aug 28 2018 13:31:52 GMT-0500 (Central Daylight Time),1535481112356,2.5775333333333332,19,main,AJ204D5LUWTVY
25,4880,75,3300DTYQT3PTITSZZ55130QYY3MEQ0,,408,graduated_college,1535481267008,4,female,386T3MLZLN3LYFFFF2KK8079FOS082,English,images/408red_dots_h.png,359,Tue Aug 28 2018 13:31:52 GMT-0500 (Central Daylight Time),1535481112356,2.5775333333333332,20,main,AJ204D5LUWTVY
25,3248,75,3300DTYQT3PTITSZZ55130QYY3MEQ0,,35,graduated_college,1535481267008,4,female,386T3MLZLN3LYFFFF2KK8079FOS082,English,images/35red_dots_e.png,62,Tue Aug 28 2018 13:31:52 GMT-0500 (Central Daylight Time),1535481112356,2.5775333333333332,21,main,AJ204D5LUWTVY
25,3204,75,3300DTYQT3PTITSZZ55130QYY3MEQ0,,188,graduated_college,1535481267008,4,female,386T3MLZLN3LYFFFF2KK8079FOS082,English,images/188red_dots_c.png,91,Tue Aug 28 2018 13:31:52 GMT-0500 (Central Daylight Time),1535481112356,2.5775333333333332,22,main,AJ204D5LUWTVY
25,3929,75,3300DTYQT3PTITSZZ55130QYY3MEQ0,,10,graduated_college,1535481267008,4,female,386T3MLZLN3LYFFFF2KK8079FOS082,English,images/10red_dots_g.png,14,Tue Aug 28 2018 13:31:52 GMT-0500 (Central Daylight Time),1535481112356,2.5775333333333332,23,main,AJ204D5LUWTVY
25,2807,75,3300DTYQT3PTITSZZ55130QYY3MEQ0,,73,graduated_college,1535481267008,4,female,386T3MLZLN3LYFFFF2KK8079FOS082,English,images/73red_dots_b.png,46,Tue Aug 28 2018 13:31:52 GMT-0500 (Central Daylight Time),1535481112356,2.5775333333333332,24,main,AJ204D5LUWTVY
27,7984,30,304SM51WA4C7O6VSHISGXSZEDUUBSM,,319,graduated_college,1535481375037,4,male,386T3MLZLN3LYFFFF2KK8079FOS082,English,images/319red_dots_a.png,302,Tue Aug 28 2018 14:33:59 GMT-0400 (Eastern Daylight Time),1535481239362,2.26125,1,practice,A1G4QY3W5J5PMW
27,5040,30,304SM51WA4C7O6VSHISGXSZEDUUBSM,,382,graduated_college,1535481375037,4,male,386T3MLZLN3LYFFFF2KK8079FOS082,English,images/382red_dots_a.png,384,Tue Aug 28 2018 14:33:59 GMT-0400 (Eastern Daylight Time),1535481239362,2.26125,2,practice,A1G4QY3W5J5PMW
27,3576,30,304SM51WA4C7O6VSHISGXSZEDUUBSM,,47,graduated_college,1535481375037,4,male,386T3MLZLN3LYFFFF2KK8079FOS082,English,images/47red_dots_i.png,26,Tue Aug 28 2018 14:33:59 GMT-0400 (Eastern Daylight Time),1535481239362,2.26125,1,main,A1G4QY3W5J5PMW
27,3809,30,304SM51WA4C7O6VSHISGXSZEDUUBSM,,19,graduated_college,1535481375037,4,male,386T3MLZLN3LYFFFF2KK8079FOS082,English,images/19red_dots_d.png,36,Tue Aug 28 2018 14:33:59 GMT-0400 (Eastern Daylight Time),1535481239362,2.26125,2,main,A1G4QY3W5J5PMW
27,3255,30,304SM51WA4C7O6VSHISGXSZEDUUBSM,,181,graduated_college,1535481375037,4,male,386T3MLZLN3LYFFFF2KK8079FOS082,English,images/181red_dots_f.png,104,Tue Aug 28 2018 14:33:59 GMT-0400 (Eastern Daylight Time),1535481239362,2.26125,3,main,A1G4QY3W5J5PMW
27,3201,30,304SM51WA4C7O6VSHISGXSZEDUUBSM,,422,graduated_college,1535481375037,4,male,386T3MLZLN3LYFFFF2KK8079FOS082,English,images/422red_dots_h.png,424,Tue Aug 28 2018 14:33:59 GMT-0400 (Eastern Daylight Time),1535481239362,2.26125,4,main,A1G4QY3W5J5PMW
27,6319,30,304SM51WA4C7O6VSHISGXSZEDUUBSM,,301,graduated_college,1535481375037,4,male,386T3MLZLN3LYFFFF2KK8079FOS082,English,images/301red_dots_h.png,362,Tue Aug 28 2018 14:33:59 GMT-0400 (Eastern Daylight Time),1535481239362,2.26125,5,main,A1G4QY3W5J5PMW
27,4079,30,304SM51WA4C7O6VSHISGXSZEDUUBSM,,372,graduated_college,1535481375037,4,male,386T3MLZLN3LYFFFF2KK8079FOS082,English,images/372red_dots_c.png,402,Tue Aug 28 2018 14:33:59 GMT-0400 (Eastern Daylight Time),1535481239362,2.26125,6,main,A1G4QY3W5J5PMW
27,3119,30,304SM51WA4C7O6VSHISGXSZEDUUBSM,,121,graduated_college,1535481375037,4,male,386T3MLZLN3LYFFFF2KK8079FOS082,English,images/121red_dots_a.png,137,Tue Aug 28 2018 14:33:59 GMT-0400 (Eastern Daylight Time),1535481239362,2.26125,7,main,A1G4QY3W5J5PMW
27,4276,30,304SM51WA4C7O6VSHISGXSZEDUUBSM,,219,graduated_college,1535481375037,4,male,386T3MLZLN3LYFFFF2KK8079FOS082,English,images/219red_dots_b.png,253,Tue Aug 28 2018 14:33:59 GMT-0400 (Eastern Daylight Time),1535481239362,2.26125,8,main,A1G4QY3W5J5PMW
27,2800,30,304SM51WA4C7O6VSHISGXSZEDUUBSM,,64,graduated_college,1535481375037,4,male,386T3MLZLN3LYFFFF2KK8079FOS082,English,images/64red_dots_i.png,49,Tue Aug 28 2018 14:33:59 GMT-0400 (Eastern Daylight Time),1535481239362,2.26125,9,main,A1G4QY3W5J5PMW
27,3158,30,304SM51WA4C7O6VSHISGXSZEDUUBSM,,250,graduated_college,1535481375037,4,male,386T3MLZLN3LYFFFF2KK8079FOS082,English,images/250red_dots_d.png,231,Tue Aug 28 2018 14:33:59 GMT-0400 (Eastern Daylight Time),1535481239362,2.26125,10,main,A1G4QY3W5J5PMW
27,5622,30,304SM51WA4C7O6VSHISGXSZEDUUBSM,,153,graduated_college,1535481375037,4,male,386T3MLZLN3LYFFFF2KK8079FOS082,English,images/153red_dots_a.png,184,Tue Aug 28 2018 14:33:59 GMT-0400 (Eastern Daylight Time),1535481239362,2.26125,11,main,A1G4QY3W5J5PMW
27,3522,30,304SM51WA4C7O6VSHISGXSZEDUUBSM,,79,graduated_college,1535481375037,4,male,386T3MLZLN3LYFFFF2KK8079FOS082,English,images/79red_dots_f.png,81,Tue Aug 28 2018 14:33:59 GMT-0400 (Eastern Daylight Time),1535481239362,2.26125,12,main,A1G4QY3W5J5PMW
27,6732,30,304SM51WA4C7O6VSHISGXSZEDUUBSM,,10,graduated_college,1535481375037,4,male,386T3MLZLN3LYFFFF2KK8079FOS082,English,images/10red_dots_b.png,19,Tue Aug 28 2018 14:33:59 GMT-0400 (Eastern Daylight Time),1535481239362,2.26125,13,main,A1G4QY3W5J5PMW
27,5795,30,304SM51WA4C7O6VSHISGXSZEDUUBSM,,275,graduated_college,1535481375037,4,male,386T3MLZLN3LYFFFF2KK8079FOS082,English,images/275red_dots_b.png,297,Tue Aug 28 2018 14:33:59 GMT-0400 (Eastern Daylight Time),1535481239362,2.26125,14,main,A1G4QY3W5J5PMW
27,3967,30,304SM51WA4C7O6VSHISGXSZEDUUBSM,,398,graduated_college,1535481375037,4,male,386T3MLZLN3LYFFFF2KK8079FOS082,English,images/398red_dots_c.png,371,Tue Aug 28 2018 14:33:59 GMT-0400 (Eastern Daylight Time),1535481239362,2.26125,15,main,A1G4QY3W5J5PMW
